Packet_ID,Rx_Time_Sec,Acc_X,Acc_Y,Acc_Z,Gyro_X,Gyro_Y,Gyro_Z
0,0.0525,0.014356935599999999,-0.1770688724,5.0057848792,0.013438810000000002,-0.00855197,-0.004886840000000001
0,0.0525,0.0095712904,-0.1818545176,5.0153561695999995,0.013438810000000002,-0.007330260000000002,-0.004886840000000001
0,0.0525,0.023928226,-0.1770688724,5.0057848792,0.013438810000000002,-0.007330260000000002,-0.003665130000000001
0,0.0525,0.0047856452,-0.2009970984,5.000999234,0.013438810000000002,-0.007330260000000002,-0.004886840000000001
0,0.0525,0.047856452,-0.2009970984,4.9962135888,0.014660520000000003,-0.007330260000000002,-0.006108550000000001
0,0.0525,-0.014356935599999999,-0.1722832272,5.0105705244,0.012217100000000002,-0.007330260000000002,-0.003665130000000001
0,0.0525,0.0047856452,-0.1962114532,5.0201418148,0.010995390000000002,-0.007330260000000002,-0.004886840000000001
0,0.0525,0.0095712904,-0.20578274359999998,5.02492746,0.012217100000000002,-0.007330260000000002,-0.004886840000000001
0,0.0525,0.0047856452,-0.1818545176,4.977071008,0.013438810000000002,-0.007330260000000002,-0.004886840000000001
0,0.0525,0.0382851616,-0.1866401628,4.9914279436,0.010995390000000002,-0.00855197,-0.003665130000000001
0,0.0525,0.023928226,-0.1866401628,5.000999234,0.012217100000000002,-0.007330260000000002,-0.003665130000000001
0,0.0525,-0.0095712904,-0.1866401628,4.977071008,0.012217100000000002,-0.007330260000000002,-0.003665130000000001
0,0.0525,0.023928226,-0.1866401628,5.000999234,0.012217100000000002,-0.006108550000000001,-0.004886840000000001
0,0.0525,0.0191425808,-0.191425808,4.9722853628,0.012217100000000002,-0.00855197,-0.003665130000000001
0,0.0525,0.0334995164,-0.2105683888,5.0057848792,0.012217100000000002,-0.007330260000000002,-0.0024434200000000004
0,0.0525,0.0095712904,-0.2009970984,5.000999234,0.013438810000000002,-0.007330260000000002,-0.004886840000000001
0,0.0525,0.0047856452,-0.2009970984,5.0297131052,0.012217100000000002,-0.007330260000000002,-0.003665130000000001
0,0.0525,0.014356935599999999,-0.1962114532,4.9914279436,0.012217100000000002,-0.006108550000000001,-0.004886840000000001
0,0.0525,0.0047856452,-0.1962114532,4.977071008,0.012217100000000002,-0.00855197,-0.004886840000000001
0,0.0525,0.0095712904,-0.1962114532,4.9866422984,0.012217100000000002,-0.00855197,-0.004886840000000001
1,0.1021,-0.0047856452,-0.1866401628,5.02492746,0.015882230000000004,-0.00855197,-0.004886840000000001
1,0.1021,0.0,-0.2201396792,5.0153561695999995,0.012217100000000002,-0.007330260000000002,-0.004886840000000001
1,0.1021,0.0047856452,-0.2009970984,4.9914279436,0.012217100000000002,-0.00855197,-0.004886840000000001
1,0.1021,0.0334995164,-0.1818545176,5.0057848792,0.012217100000000002,-0.006108550000000001,-0.004886840000000001
1,0.1021,0.023928226,-0.1770688724,5.0297131052,0.013438810000000002,-0.007330260000000002,-0.004886840000000001
1,0.1021,0.0047856452,-0.2009970984,4.9962135888,0.012217100000000002,-0.006108550000000001,-0.003665130000000001
1,0.1021,0.0047856452,-0.2440679052,4.9674997176,0.013438810000000002,-0.007330260000000002,-0.004886840000000001
1,0.1021,0.023928226,-0.20578274359999998,4.9914279436,0.012217100000000002,-0.007330260000000002,-0.006108550000000001
1,0.1021,0.0191425808,-0.1962114532,5.000999234,0.013438810000000002,-0.007330260000000002,-0.004886840000000001
1,0.1021,0.014356935599999999,-0.191425808,4.9914279436,0.013438810000000002,-0.007330260000000002,-0.004886840000000001
1,0.1021,-0.0095712904,-0.191425808,5.0201418148,0.013438810000000002,-0.007330260000000002,-0.004886840000000001
1,0.1021,0.0095712904,-0.1818545176,5.0297131052,0.012217100000000002,-0.007330260000000002,-0.003665130000000001
1,0.1021,0.0,-0.1770688724,5.02492746,0.013438810000000002,-0.006108550000000001,-0.004886840000000001
1,0.1021,0.023928226,-0.1962114532,4.9866422984,0.013438810000000002,-0.009773680000000002,-0.003665130000000001
1,0.1021,0.0,-0.2201396792,4.9866422984,0.010995390000000002,-0.00855197,-0.003665130000000001
1,0.1021,0.0,-0.1722832272,5.0153561695999995,0.015882230000000004,-0.007330260000000002,-0.006108550000000001
1,0.1021,0.047856452,-0.20578274359999998,5.0057848792,0.014660520000000003,-0.007330260000000002,-0.004886840000000001
1,0.1021,0.023928226,-0.215354034,5.0105705244,0.013438810000000002,-0.00855197,-0.004886840000000001
1,0.1021,0.014356935599999999,-0.1866401628,4.9962135888,0.009773680000000002,-0.00855197,-0.006108550000000001
1,0.1021,0.028713871199999998,-0.167497582,4.9962135888,0.013438810000000002,-0.009773680000000002,-0.004886840000000001
2,0.152,0.0095712904,-0.16271193679999998,5.0057848792,0.013438810000000002,-0.00855197,-0.003665130000000001
2,0.152,0.0047856452,-0.167497582,5.0057848792,0.014660520000000003,-0.006108550000000001,-0.004886840000000001
2,0.152,0.014356935599999999,-0.1722832272,4.9866422984,0.012217100000000002,-0.006108550000000001,-0.004886840000000001
2,0.152,0.0382851616,-0.167497582,5.0153561695999995,0.013438810000000002,-0.007330260000000002,-0.003665130000000001
2,0.152,0.0095712904,-0.1579262916,5.0057848792,0.012217100000000002,-0.007330260000000002,-0.004886840000000001
2,0.152,0.0047856452,-0.1722832272,4.9962135888,0.012217100000000002,-0.007330260000000002,-0.006108550000000001
2,0.152,0.0095712904,-0.1770688724,4.9914279436,0.012217100000000002,-0.007330260000000002,-0.004886840000000001
2,0.152,0.0047856452,-0.1770688724,5.000999234,0.014660520000000003,-0.007330260000000002,-0.004886840000000001
2,0.152,0.0047856452,-0.2009970984,5.0105705244,0.012217100000000002,-0.007330260000000002,-0.006108550000000001
2,0.152,0.0191425808,-0.2009970984,5.0057848792,0.013438810000000002,-0.007330260000000002,-0.004886840000000001
2,0.152,0.0191425808,-0.1722832272,5.0057848792,0.013438810000000002,-0.007330260000000002,-0.003665130000000001
2,0.152,0.028713871199999998,-0.1722832272,5.0297131052,0.013438810000000002,-0.007330260000000002,-0.003665130000000001
2,0.152,0.0191425808,-0.2105683888,4.9674997176,0.013438810000000002,-0.00855197,-0.004886840000000001
2,0.152,-0.0047856452,-0.1722832272,4.9914279436,0.013438810000000002,-0.007330260000000002,-0.004886840000000001
2,0.152,0.0095712904,-0.1770688724,4.9962135888,0.010995390000000002,-0.007330260000000002,-0.003665130000000001
2,0.152,0.028713871199999998,-0.1722832272,5.0153561695999995,0.012217100000000002,-0.007330260000000002,-0.003665130000000001
2,0.152,0.0334995164,-0.191425808,5.0057848792,0.014660520000000003,-0.007330260000000002,-0.003665130000000001
2,0.152,0.0047856452,-0.1818545176,5.0201418148,0.012217100000000002,-0.00855197,-0.004886840000000001
2,0.152,0.0047856452,-0.191425808,4.977071008,0.012217100000000002,-0.006108550000000001,-0.006108550000000001
2,0.152,0.023928226,-0.191425808,5.0057848792,0.014660520000000003,-0.00855197,-0.006108550000000001
3,0.1989,0.0095712904,-0.1962114532,5.0440700408,0.013438810000000002,-0.007330260000000002,-0.004886840000000001
3,0.1989,0.0095712904,-0.2201396792,5.000999234,0.012217100000000002,-0.006108550000000001,-0.003665130000000001
3,0.1989,0.0334995164,-0.1962114532,4.9962135888,0.014660520000000003,-0.00855197,-0.004886840000000001
3,0.1989,0.0095712904,-0.1866401628,5.0153561695999995,0.013438810000000002,-0.007330260000000002,-0.004886840000000001
3,0.1989,0.014356935599999999,-0.1722832272,5.0105705244,0.013438810000000002,-0.00855197,-0.006108550000000001
3,0.1989,0.0334995164,-0.1818545176,4.9674997176,0.010995390000000002,-0.00855197,-0.004886840000000001
3,0.1989,0.0,-0.215354034,4.9722853628,0.013438810000000002,-0.007330260000000002,-0.004886840000000001
3,0.1989,0.0191425808,-0.20578274359999998,5.000999234,0.013438810000000002,-0.007330260000000002,-0.003665130000000001
3,0.1989,0.0047856452,-0.1722832272,4.9674997176,0.013438810000000002,-0.00855197,-0.004886840000000001
3,0.1989,0.0095712904,-0.1818545176,4.9866422984,0.014660520000000003,-0.007330260000000002,-0.004886840000000001
3,0.1989,-0.0095712904,-0.20578274359999998,5.0201418148,0.013438810000000002,-0.00855197,-0.004886840000000001
3,0.1989,0.023928226,-0.2009970984,5.0392843956,0.014660520000000003,-0.007330260000000002,-0.006108550000000001
3,0.1989,0.0191425808,-0.2009970984,5.048855686,0.013438810000000002,-0.007330260000000002,-0.006108550000000001
3,0.1989,0.0095712904,-0.191425808,5.0536413312,0.015882230000000004,-0.007330260000000002,-0.006108550000000001
3,0.1989,0.023928226,-0.1722832272,5.0201418148,0.013438810000000002,-0.006108550000000001,-0.004886840000000001
3,0.1989,0.0,-0.191425808,4.9866422984,0.013438810000000002,-0.006108550000000001,-0.004886840000000001
3,0.1989,0.014356935599999999,-0.1818545176,4.9962135888,0.013438810000000002,-0.007330260000000002,-0.006108550000000001
3,0.1989,0.0382851616,-0.1962114532,4.9914279436,0.012217100000000002,-0.006108550000000001,-0.006108550000000001
3,0.1989,0.0191425808,-0.2009970984,5.0105705244,0.013438810000000002,-0.007330260000000002,-0.007330260000000002
3,0.1989,0.0095712904,-0.1866401628,4.9722853628,0.012217100000000002,-0.006108550000000001,-0.006108550000000001
4,0.2554,-0.0047856452,-0.215354034,4.9722853628,0.013438810000000002,-0.007330260000000002,-0.006108550000000001
4,0.2554,0.023928226,-0.1818545176,4.9627140724,0.010995390000000002,-0.007330260000000002,-0.007330260000000002
4,0.2554,0.0334995164,-0.191425808,5.000999234,0.013438810000000002,-0.00855197,-0.006108550000000001
4,0.2554,0.014356935599999999,-0.1962114532,5.0105705244,0.014660520000000003,-0.00855197,-0.006108550000000001
4,0.2554,0.0095712904,-0.1866401628,5.0440700408,0.013438810000000002,-0.006108550000000001,-0.006108550000000001
4,0.2554,0.023928226,-0.1962114532,5.0632126216,0.013438810000000002,-0.006108550000000001,-0.004886840000000001
4,0.2554,0.0191425808,-0.1962114532,5.0297131052,0.013438810000000002,-0.00855197,-0.003665130000000001
4,0.2554,0.0334995164,-0.1866401628,5.0344987504,0.013438810000000002,-0.007330260000000002,-0.004886840000000001
4,0.2554,0.057427742399999995,-0.2201396792,4.977071008,0.013438810000000002,-0.00855197,-0.006108550000000001
4,0.2554,0.047856452,-0.2105683888,4.977071008,0.010995390000000002,-0.006108550000000001,-0.006108550000000001
4,0.2554,0.014356935599999999,-0.2344966148,4.9627140724,0.012217100000000002,-0.007330260000000002,-0.004886840000000001
4,0.2554,0.057427742399999995,-0.215354034,4.9579284272,0.012217100000000002,-0.007330260000000002,-0.004886840000000001
4,0.2554,0.028713871199999998,-0.1962114532,4.977071008,0.014660520000000003,-0.007330260000000002,-0.006108550000000001
4,0.2554,0.0334995164,-0.1579262916,4.9674997176,0.013438810000000002,-0.00855197,-0.006108550000000001
4,0.2554,0.023928226,-0.2201396792,5.02492746,0.012217100000000002,-0.007330260000000002,-0.006108550000000001
4,0.2554,0.0334995164,-0.2009970984,5.0536413312,0.013438810000000002,-0.007330260000000002,-0.006108550000000001
4,0.2554,0.0095712904,-0.1770688724,5.072783912,0.014660520000000003,-0.006108550000000001,-0.004886840000000001
4,0.2554,0.023928226,-0.191425808,5.0440700408,0.014660520000000003,-0.006108550000000001,-0.006108550000000001
4,0.2554,0.0334995164,-0.167497582,5.0679982668,0.013438810000000002,-0.006108550000000001,-0.006108550000000001
4,0.2554,0.028713871199999998,-0.1770688724,5.0153561695999995,0.012217100000000002,-0.007330260000000002,-0.004886840000000001
5,0.2968,0.0047856452,-0.1770688724,4.9722853628,0.012217100000000002,-0.00855197,-0.006108550000000001
5,0.2968,0.0,-0.215354034,4.9722853628,0.012217100000000002,-0.006108550000000001,-0.006108550000000001
5,0.2968,0.014356935599999999,-0.22971096959999998,4.9627140724,0.010995390000000002,-0.006108550000000001,-0.004886840000000001
5,0.2968,0.0095712904,-0.2105683888,4.9435714916,0.014660520000000003,-0.006108550000000001,-0.006108550000000001
5,0.2968,0.0047856452,-0.2201396792,4.9722853628,0.012217100000000002,-0.006108550000000001,-0.004886840000000001
5,0.2968,0.0382851616,-0.2201396792,4.9818566531999995,0.013438810000000002,-0.00855197,-0.006108550000000001
5,0.2968,0.0047856452,-0.1818545176,5.0201418148,0.013438810000000002,-0.007330260000000002,-0.004886840000000001
5,0.2968,0.014356935599999999,-0.1962114532,5.000999234,0.014660520000000003,-0.00855197,-0.004886840000000001
5,0.2968,0.0047856452,-0.1962114532,5.0297131052,0.014660520000000003,-0.007330260000000002,-0.006108550000000001
5,0.2968,0.014356935599999999,-0.1818545176,5.0679982668,0.013438810000000002,-0.007330260000000002,-0.004886840000000001
5,0.2968,0.0095712904,-0.2009970984,5.0344987504,0.014660520000000003,-0.00855197,-0.004886840000000001
5,0.2968,0.0191425808,-0.1866401628,5.0440700408,0.012217100000000002,-0.006108550000000001,-0.006108550000000001
5,0.2968,0.0191425808,-0.2009970984,5.0153561695999995,0.012217100000000002,-0.006108550000000001,-0.006108550000000001
5,0.2968,0.0047856452,-0.1770688724,4.9914279436,0.012217100000000002,-0.006108550000000001,-0.004886840000000001
5,0.2968,0.028713871199999998,-0.20578274359999998,4.9722853628,0.012217100000000002,-0.007330260000000002,-0.003665130000000001
5,0.2968,0.0382851616,-0.20578274359999998,4.9435714916,0.012217100000000002,-0.007330260000000002,-0.004886840000000001
5,0.2968,0.0095712904,-0.2249253244,4.9387858464,0.013438810000000002,-0.007330260000000002,-0.006108550000000001
5,0.2968,0.0382851616,-0.2105683888,4.9435714916,0.013438810000000002,-0.00855197,-0.006108550000000001
5,0.2968,0.0334995164,-0.191425808,4.977071008,0.012217100000000002,-0.00855197,-0.004886840000000001
5,0.2968,0.0382851616,-0.2105683888,4.977071008,0.013438810000000002,-0.007330260000000002,-0.006108550000000001
6,0.3475,0.0095712904,-0.1818545176,4.9818566531999995,0.013438810000000002,-0.00855197,-0.003665130000000001
6,0.3475,0.047856452,-0.2105683888,5.0440700408,0.013438810000000002,-0.007330260000000002,-0.003665130000000001
6,0.3475,0.0334995164,-0.1962114532,5.0392843956,0.014660520000000003,-0.007330260000000002,-0.004886840000000001
6,0.3475,0.0191425808,-0.191425808,5.0344987504,0.015882230000000004,-0.00855197,-0.004886840000000001
6,0.3475,0.014356935599999999,-0.1818545176,5.0536413312,0.015882230000000004,-0.007330260000000002,-0.004886840000000001
6,0.3475,0.0382851616,-0.1866401628,5.0344987504,0.014660520000000003,-0.006108550000000001,-0.003665130000000001
6,0.3475,0.0191425808,-0.2009970984,5.0105705244,0.013438810000000002,-0.006108550000000001,-0.003665130000000001
6,0.3475,0.0191425808,-0.2105683888,5.0057848792,0.012217100000000002,-0.007330260000000002,-0.004886840000000001
6,0.3475,0.0430708068,-0.2201396792,4.9962135888,0.015882230000000004,-0.007330260000000002,-0.004886840000000001
6,0.3475,0.023928226,-0.2105683888,4.9866422984,0.012217100000000002,-0.007330260000000002,-0.003665130000000001
6,0.3475,0.057427742399999995,-0.215354034,4.9579284272,0.013438810000000002,-0.007330260000000002,-0.003665130000000001
6,0.3475,0.023928226,-0.2009970984,4.977071008,0.013438810000000002,-0.00855197,-0.004886840000000001
6,0.3475,0.0095712904,-0.1962114532,4.9674997176,0.014660520000000003,-0.00855197,-0.004886840000000001
6,0.3475,0.0430708068,-0.20578274359999998,5.000999234,0.014660520000000003,-0.00855197,-0.003665130000000001
6,0.3475,0.014356935599999999,-0.1818545176,5.0440700408,0.014660520000000003,-0.007330260000000002,-0.003665130000000001
6,0.3475,0.0095712904,-0.2009970984,5.0440700408,0.015882230000000004,-0.007330260000000002,-0.003665130000000001
6,0.3475,0.0191425808,-0.1770688724,5.0297131052,0.013438810000000002,-0.007330260000000002,-0.0024434200000000004
6,0.3475,0.0047856452,-0.1866401628,5.0440700408,0.014660520000000003,-0.007330260000000002,-0.003665130000000001
6,0.3475,0.0334995164,-0.167497582,5.0153561695999995,0.013438810000000002,-0.007330260000000002,-0.003665130000000001
6,0.3475,0.0047856452,-0.2009970984,4.9914279436,0.012217100000000002,-0.007330260000000002,-0.003665130000000001
7,0.3953,-0.0191425808,-0.191425808,4.9914279436,0.012217100000000002,-0.006108550000000001,-0.004886840000000001
7,0.3953,0.0334995164,-0.2105683888,4.977071008,0.012217100000000002,-0.007330260000000002,-0.003665130000000001
7,0.3953,0.0382851616,-0.2201396792,4.9722853628,0.014660520000000003,-0.007330260000000002,-0.0024434200000000004
7,0.3953,0.0765703232,-0.1962114532,4.9579284272,0.014660520000000003,-0.00855197,-0.004886840000000001
7,0.3953,0.0430708068,-0.191425808,4.9866422984,0.013438810000000002,-0.00855197,-0.003665130000000001
7,0.3953,0.028713871199999998,-0.1866401628,4.9866422984,0.013438810000000002,-0.00855197,-0.003665130000000001
7,0.3953,0.057427742399999995,-0.1962114532,5.0057848792,0.015882230000000004,-0.006108550000000001,-0.004886840000000001
7,0.3953,0.0095712904,-0.1818545176,5.0105705244,0.014660520000000003,-0.007330260000000002,-0.003665130000000001
7,0.3953,0.023928226,-0.1722832272,5.02492746,0.013438810000000002,-0.00855197,-0.003665130000000001
7,0.3953,0.0382851616,-0.167497582,5.0344987504,0.014660520000000003,-0.00855197,-0.003665130000000001
7,0.3953,0.0382851616,-0.1962114532,5.0153561695999995,0.013438810000000002,-0.006108550000000001,-0.006108550000000001
7,0.3953,0.014356935599999999,-0.191425808,5.048855686,0.013438810000000002,-0.004886840000000001,-0.0024434200000000004
7,0.3953,0.0047856452,-0.2009970984,5.0201418148,0.013438810000000002,-0.007330260000000002,-0.0024434200000000004
7,0.3953,0.0047856452,-0.20578274359999998,4.9914279436,0.013438810000000002,-0.007330260000000002,-0.003665130000000001
7,0.3953,-0.0191425808,-0.2105683888,4.9722853628,0.012217100000000002,-0.007330260000000002,-0.004886840000000001
7,0.3953,0.023928226,-0.2105683888,4.953142782,0.013438810000000002,-0.006108550000000001,-0.004886840000000001
7,0.3953,0.014356935599999999,-0.2105683888,4.9866422984,0.012217100000000002,-0.007330260000000002,-0.004886840000000001
7,0.3953,0.0,-0.1962114532,4.9627140724,0.014660520000000003,-0.00855197,-0.006108550000000001
7,0.3953,0.0047856452,-0.1866401628,5.000999234,0.014660520000000003,-0.00855197,-0.004886840000000001
7,0.3953,0.0,-0.191425808,5.02492746,0.014660520000000003,-0.007330260000000002,-0.003665130000000001
8,0.4474,0.0,-0.1962114532,5.0344987504,0.014660520000000003,-0.007330260000000002,-0.004886840000000001
8,0.4474,0.014356935599999999,-0.1962114532,5.0440700408,0.015882230000000004,-0.007330260000000002,-0.004886840000000001
8,0.4474,0.023928226,-0.2009970984,5.0344987504,0.012217100000000002,-0.007330260000000002,-0.004886840000000001
8,0.4474,-0.014356935599999999,-0.1770688724,5.048855686,0.013438810000000002,-0.00855197,-0.004886840000000001
8,0.4474,0.0,-0.1722832272,5.0153561695999995,0.013438810000000002,-0.004886840000000001,-0.003665130000000001
8,0.4474,0.014356935599999999,-0.191425808,5.0057848792,0.014660520000000003,-0.007330260000000002,-0.004886840000000001
8,0.4474,0.0095712904,-0.20578274359999998,4.977071008,0.013438810000000002,-0.006108550000000001,-0.004886840000000001
8,0.4474,0.0047856452,-0.2105683888,4.9483571368,0.013438810000000002,-0.007330260000000002,-0.004886840000000001
8,0.4474,0.028713871199999998,-0.2009970984,4.9674997176,0.014660520000000003,-0.007330260000000002,-0.004886840000000001
8,0.4474,0.023928226,-0.2201396792,4.9627140724,0.014660520000000003,-0.00855197,-0.003665130000000001
8,0.4474,0.023928226,-0.1866401628,4.9914279436,0.014660520000000003,-0.00855197,-0.004886840000000001
8,0.4474,0.0191425808,-0.1770688724,4.9962135888,0.013438810000000002,-0.00855197,-0.003665130000000001
8,0.4474,0.0047856452,-0.2105683888,5.0344987504,0.014660520000000003,-0.007330260000000002,-0.004886840000000001
8,0.4474,0.014356935599999999,-0.1962114532,5.000999234,0.014660520000000003,-0.00855197,-0.004886840000000001
8,0.4474,0.028713871199999998,-0.191425808,5.0297131052,0.014660520000000003,-0.007330260000000002,-0.004886840000000001
8,0.4474,0.0095712904,-0.1722832272,5.02492746,0.013438810000000002,-0.006108550000000001,-0.004886840000000001
8,0.4474,0.0047856452,-0.2009970984,5.0297131052,0.013438810000000002,-0.007330260000000002,-0.004886840000000001
8,0.4474,0.028713871199999998,-0.2105683888,5.0440700408,0.013438810000000002,-0.007330260000000002,-0.004886840000000001
8,0.4474,0.028713871199999998,-0.2009970984,5.0392843956,0.013438810000000002,-0.00855197,-0.004886840000000001
8,0.4474,0.0095712904,-0.2009970984,4.9818566531999995,0.013438810000000002,-0.007330260000000002,-0.003665130000000001
9,0.4933,0.028713871199999998,-0.2009970984,4.9579284272,0.014660520000000003,-0.00855197,-0.003665130000000001
9,0.4933,0.028713871199999998,-0.20578274359999998,4.9722853628,0.014660520000000003,-0.007330260000000002,-0.004886840000000001
9,0.4933,0.0047856452,-0.20578274359999998,4.977071008,0.013438810000000002,-0.007330260000000002,-0.004886840000000001
9,0.4933,0.0047856452,-0.191425808,4.9914279436,0.014660520000000003,-0.007330260000000002,-0.004886840000000001
9,0.4933,-0.014356935599999999,-0.215354034,5.0057848792,0.014660520000000003,-0.006108550000000001,-0.003665130000000001
9,0.4933,0.028713871199999998,-0.1722832272,5.0297131052,0.015882230000000004,-0.00855197,-0.003665130000000001
9,0.4933,0.0191425808,-0.1962114532,5.0057848792,0.012217100000000002,-0.007330260000000002,-0.006108550000000001
9,0.4933,0.0334995164,-0.1866401628,5.02492746,0.013438810000000002,-0.006108550000000001,-0.006108550000000001
9,0.4933,0.0,-0.1579262916,5.0105705244,0.013438810000000002,-0.007330260000000002,-0.003665130000000001
9,0.4933,0.0430708068,-0.2009970984,5.0201418148,0.014660520000000003,-0.007330260000000002,-0.003665130000000001
9,0.4933,0.0526420972,-0.1770688724,5.0105705244,0.013438810000000002,-0.00855197,-0.003665130000000001
9,0.4933,0.023928226,-0.2009970984,5.0057848792,0.013438810000000002,-0.007330260000000002,-0.004886840000000001
9,0.4933,0.023928226,-0.2249253244,5.0057848792,0.013438810000000002,-0.00855197,-0.003665130000000001
9,0.4933,0.028713871199999998,-0.215354034,4.977071008,0.013438810000000002,-0.007330260000000002,-0.0024434200000000004
9,0.4933,0.023928226,-0.1962114532,4.9962135888,0.014660520000000003,-0.007330260000000002,-0.003665130000000001
9,0.4933,0.0334995164,-0.1962114532,4.9866422984,0.013438810000000002,-0.007330260000000002,-0.0024434200000000004
9,0.4933,0.0430708068,-0.167497582,4.977071008,0.014660520000000003,-0.007330260000000002,-0.003665130000000001
9,0.4933,0.0334995164,-0.2344966148,4.9962135888,0.013438810000000002,-0.00855197,-0.006108550000000001
9,0.4933,0.014356935599999999,-0.1866401628,5.0201418148,0.014660520000000003,-0.006108550000000001,-0.006108550000000001
9,0.4933,0.028713871199999998,-0.1722832272,5.0153561695999995,0.014660520000000003,-0.007330260000000002,-0.006108550000000001
10,0.5421,0.023928226,-0.167497582,5.0057848792,0.014660520000000003,-0.00855197,-0.006108550000000001
10,0.5421,0.023928226,-0.1962114532,5.0153561695999995,0.013438810000000002,-0.007330260000000002,-0.003665130000000001
10,0.5421,0.0191425808,-0.1962114532,5.0105705244,0.013438810000000002,-0.007330260000000002,-0.0024434200000000004
10,0.5421,0.0047856452,-0.1962114532,5.000999234,0.013438810000000002,-0.00855197,-0.003665130000000001
10,0.5421,-0.0047856452,-0.20578274359999998,4.977071008,0.013438810000000002,-0.007330260000000002,-0.003665130000000001
10,0.5421,0.014356935599999999,-0.1962114532,4.9818566531999995,0.013438810000000002,-0.00855197,-0.004886840000000001
10,0.5421,0.028713871199999998,-0.1962114532,4.9866422984,0.013438810000000002,-0.007330260000000002,-0.004886840000000001
10,0.5421,-0.0191425808,-0.1818545176,4.9914279436,0.013438810000000002,-0.006108550000000001,-0.003665130000000001
10,0.5421,0.0095712904,-0.1818545176,5.000999234,0.015882230000000004,-0.006108550000000001,-0.004886840000000001
10,0.5421,0.0095712904,-0.1866401628,5.0153561695999995,0.013438810000000002,-0.007330260000000002,-0.004886840000000001
10,0.5421,0.0191425808,-0.1962114532,4.9962135888,0.013438810000000002,-0.007330260000000002,-0.004886840000000001
10,0.5421,0.028713871199999998,-0.1866401628,5.0153561695999995,0.014660520000000003,-0.006108550000000001,-0.004886840000000001
10,0.5421,0.0191425808,-0.20578274359999998,5.0105705244,0.013438810000000002,-0.007330260000000002,-0.006108550000000001
10,0.5421,0.0,-0.1866401628,4.9962135888,0.014660520000000003,-0.007330260000000002,-0.006108550000000001
10,0.5421,0.0,-0.2105683888,5.000999234,0.012217100000000002,-0.007330260000000002,-0.006108550000000001
10,0.5421,0.0047856452,-0.191425808,5.0105705244,0.013438810000000002,-0.007330260000000002,-0.003665130000000001
10,0.5421,0.014356935599999999,-0.215354034,5.000999234,0.012217100000000002,-0.007330260000000002,-0.004886840000000001
10,0.5421,0.0382851616,-0.2105683888,4.9866422984,0.014660520000000003,-0.006108550000000001,-0.004886840000000001
10,0.5421,0.047856452,-0.2009970984,4.9722853628,0.010995390000000002,-0.007330260000000002,-0.003665130000000001
10,0.5421,0.0191425808,-0.1818545176,4.9722853628,0.014660520000000003,-0.007330260000000002,-0.004886840000000001
11,0.5911,0.023928226,-0.1866401628,4.9722853628,0.012217100000000002,-0.007330260000000002,-0.0024434200000000004
11,0.5911,0.0191425808,-0.191425808,5.0057848792,0.012217100000000002,-0.00855197,-0.004886840000000001
11,0.5911,0.0430708068,-0.2105683888,4.9914279436,0.012217100000000002,-0.00855197,-0.003665130000000001
11,0.5911,0.0,-0.2009970984,4.9914279436,0.014660520000000003,-0.006108550000000001,-0.003665130000000001
11,0.5911,0.0191425808,-0.20578274359999998,5.02492746,0.014660520000000003,-0.007330260000000002,-0.006108550000000001
11,0.5911,0.028713871199999998,-0.1866401628,4.977071008,0.012217100000000002,-0.006108550000000001,-0.003665130000000001
11,0.5911,0.0382851616,-0.2201396792,5.0105705244,0.012217100000000002,-0.007330260000000002,-0.004886840000000001
11,0.5911,0.0191425808,-0.1866401628,5.0105705244,0.012217100000000002,-0.007330260000000002,-0.0024434200000000004
11,0.5911,0.028713871199999998,-0.2009970984,5.000999234,0.013438810000000002,-0.006108550000000001,-0.004886840000000001
11,0.5911,0.0095712904,-0.20578274359999998,4.9818566531999995,0.013438810000000002,-0.00855197,-0.004886840000000001
11,0.5911,0.023928226,-0.1962114532,5.000999234,0.010995390000000002,-0.00855197,-0.004886840000000001
11,0.5911,0.028713871199999998,-0.1818545176,5.0057848792,0.013438810000000002,-0.006108550000000001,-0.003665130000000001
11,0.5911,0.014356935599999999,-0.20578274359999998,5.0057848792,0.014660520000000003,-0.00855197,-0.004886840000000001
11,0.5911,0.023928226,-0.1866401628,5.0057848792,0.014660520000000003,-0.007330260000000002,-0.003665130000000001
11,0.5911,0.0047856452,-0.1866401628,5.0201418148,0.012217100000000002,-0.007330260000000002,-0.003665130000000001
11,0.5911,0.014356935599999999,-0.191425808,5.0153561695999995,0.013438810000000002,-0.009773680000000002,-0.003665130000000001
11,0.5911,0.023928226,-0.2009970984,5.0057848792,0.013438810000000002,-0.00855197,-0.004886840000000001
11,0.5911,0.0334995164,-0.2009970984,4.9914279436,0.013438810000000002,-0.006108550000000001,-0.003665130000000001
11,0.5911,0.023928226,-0.1722832272,5.0105705244,0.012217100000000002,-0.007330260000000002,-0.003665130000000001
11,0.5911,0.047856452,-0.1818545176,4.9914279436,0.013438810000000002,-0.00855197,-0.004886840000000001
12,0.6434,0.014356935599999999,-0.2105683888,5.0057848792,0.014660520000000003,-0.006108550000000001,-0.006108550000000001
12,0.6434,0.0191425808,-0.191425808,4.9914279436,0.013438810000000002,-0.007330260000000002,-0.003665130000000001
12,0.6434,0.0047856452,-0.20578274359999998,5.0105705244,0.012217100000000002,-0.007330260000000002,-0.003665130000000001
12,0.6434,0.0047856452,-0.2009970984,4.9866422984,0.013438810000000002,-0.007330260000000002,-0.003665130000000001
12,0.6434,-0.014356935599999999,-0.191425808,5.0105705244,0.013438810000000002,-0.007330260000000002,-0.004886840000000001
12,0.6434,0.0334995164,-0.167497582,5.000999234,0.014660520000000003,-0.006108550000000001,-0.004886840000000001
12,0.6434,0.0191425808,-0.1770688724,5.0153561695999995,0.012217100000000002,-0.00855197,-0.004886840000000001
12,0.6434,0.028713871199999998,-0.2009970984,4.9962135888,0.013438810000000002,-0.007330260000000002,-0.006108550000000001
12,0.6434,0.0095712904,-0.191425808,5.0153561695999995,0.013438810000000002,-0.00855197,-0.006108550000000001
12,0.6434,-0.0095712904,-0.1770688724,4.9962135888,0.013438810000000002,-0.007330260000000002,-0.004886840000000001
12,0.6434,0.0191425808,-0.191425808,5.0201418148,0.010995390000000002,-0.00855197,-0.003665130000000001
12,0.6434,0.023928226,-0.20578274359999998,5.000999234,0.010995390000000002,-0.00855197,-0.003665130000000001
12,0.6434,0.0191425808,-0.1866401628,5.000999234,0.012217100000000002,-0.007330260000000002,-0.004886840000000001
12,0.6434,0.023928226,-0.1962114532,4.9914279436,0.013438810000000002,-0.007330260000000002,-0.006108550000000001
12,0.6434,0.0382851616,-0.1818545176,4.9962135888,0.012217100000000002,-0.00855197,-0.004886840000000001
12,0.6434,0.014356935599999999,-0.2105683888,4.9722853628,0.013438810000000002,-0.006108550000000001,-0.004886840000000001
12,0.6434,0.0,-0.191425808,4.9818566531999995,0.012217100000000002,-0.007330260000000002,-0.004886840000000001
12,0.6434,0.0334995164,-0.2105683888,5.0105705244,0.010995390000000002,-0.007330260000000002,-0.0024434200000000004
12,0.6434,0.0382851616,-0.22971096959999998,4.9962135888,0.013438810000000002,-0.00855197,-0.003665130000000001
12,0.6434,0.0,-0.2249253244,5.0057848792,0.014660520000000003,-0.00855197,-0.004886840000000001
13,0.691,0.0191425808,-0.1962114532,4.9866422984,0.013438810000000002,-0.007330260000000002,-0.004886840000000001
13,0.691,0.028713871199999998,-0.1770688724,4.9914279436,0.012217100000000002,-0.00855197,-0.004886840000000001
13,0.691,0.0191425808,-0.2009970984,4.9962135888,0.013438810000000002,-0.00855197,-0.004886840000000001
13,0.691,0.014356935599999999,-0.2009970984,4.9962135888,0.012217100000000002,-0.007330260000000002,-0.004886840000000001
13,0.691,0.0047856452,-0.2009970984,5.0297131052,0.013438810000000002,-0.00855197,-0.004886840000000001
13,0.691,0.0047856452,-0.1866401628,4.9914279436,0.015882230000000004,-0.00855197,-0.004886840000000001
13,0.691,0.023928226,-0.20578274359999998,5.000999234,0.013438810000000002,-0.007330260000000002,-0.004886840000000001
13,0.691,-0.0191425808,-0.2105683888,4.9962135888,0.012217100000000002,-0.00855197,-0.004886840000000001
13,0.691,0.0191425808,-0.1962114532,4.9914279436,0.012217100000000002,-0.007330260000000002,-0.0024434200000000004
13,0.691,0.0047856452,-0.1818545176,4.9914279436,0.013438810000000002,-0.007330260000000002,-0.003665130000000001
13,0.691,-0.0191425808,-0.1770688724,5.000999234,0.012217100000000002,-0.007330260000000002,-0.004886840000000001
13,0.691,0.028713871199999998,-0.1818545176,4.9962135888,0.012217100000000002,-0.00855197,-0.004886840000000001
13,0.691,0.0191425808,-0.1818545176,4.9818566531999995,0.012217100000000002,-0.00855197,-0.004886840000000001
13,0.691,0.0430708068,-0.1962114532,4.9914279436,0.010995390000000002,-0.006108550000000001,-0.006108550000000001
13,0.691,0.0334995164,-0.2009970984,5.0105705244,0.014660520000000003,-0.006108550000000001,-0.004886840000000001
13,0.691,0.0191425808,-0.1866401628,5.0105705244,0.012217100000000002,-0.007330260000000002,-0.004886840000000001
13,0.691,0.014356935599999999,-0.191425808,4.9914279436,0.010995390000000002,-0.00855197,-0.003665130000000001
13,0.691,0.023928226,-0.167497582,5.0153561695999995,0.012217100000000002,-0.007330260000000002,-0.004886840000000001
13,0.691,0.023928226,-0.1818545176,5.0105705244,0.014660520000000003,-0.007330260000000002,-0.004886840000000001
13,0.691,0.014356935599999999,-0.1722832272,5.000999234,0.012217100000000002,-0.006108550000000001,-0.004886840000000001
14,0.7366,0.0382851616,-0.2009970984,4.9866422984,0.013438810000000002,-0.007330260000000002,-0.004886840000000001
14,0.7366,0.023928226,-0.20578274359999998,4.9866422984,0.013438810000000002,-0.007330260000000002,-0.003665130000000001
14,0.7366,0.0334995164,-0.1962114532,5.0057848792,0.013438810000000002,-0.00855197,-0.003665130000000001
14,0.7366,0.023928226,-0.1962114532,4.9962135888,0.013438810000000002,-0.00855197,-0.003665130000000001
14,0.7366,0.023928226,-0.20578274359999998,4.9962135888,0.012217100000000002,-0.007330260000000002,-0.004886840000000001
14,0.7366,0.014356935599999999,-0.2009970984,5.000999234,0.013438810000000002,-0.009773680000000002,-0.006108550000000001
14,0.7366,0.0334995164,-0.2009970984,5.0153561695999995,0.012217100000000002,-0.00855197,-0.006108550000000001
14,0.7366,0.0191425808,-0.20578274359999998,4.9866422984,0.013438810000000002,-0.007330260000000002,-0.003665130000000001
14,0.7366,-0.0047856452,-0.2009970984,5.000999234,0.013438810000000002,-0.007330260000000002,-0.004886840000000001
14,0.7366,0.0,-0.1818545176,5.0105705244,0.014660520000000003,-0.009773680000000002,-0.004886840000000001
14,0.7366,0.0191425808,-0.1962114532,4.9818566531999995,0.013438810000000002,-0.00855197,-0.003665130000000001
14,0.7366,0.0191425808,-0.1866401628,5.0105705244,0.012217100000000002,-0.00855197,-0.003665130000000001
14,0.7366,-0.0047856452,-0.215354034,5.0201418148,0.012217100000000002,-0.007330260000000002,-0.006108550000000001
14,0.7366,0.028713871199999998,-0.1962114532,5.0057848792,0.013438810000000002,-0.007330260000000002,-0.004886840000000001
14,0.7366,0.0047856452,-0.1962114532,4.9914279436,0.012217100000000002,-0.006108550000000001,-0.003665130000000001
14,0.7366,0.028713871199999998,-0.215354034,4.9962135888,0.013438810000000002,-0.007330260000000002,-0.006108550000000001
14,0.7366,0.023928226,-0.20578274359999998,5.0153561695999995,0.013438810000000002,-0.007330260000000002,-0.004886840000000001
14,0.7366,0.023928226,-0.16271193679999998,4.9818566531999995,0.010995390000000002,-0.007330260000000002,-0.004886840000000001
14,0.7366,0.023928226,-0.191425808,4.9818566531999995,0.013438810000000002,-0.007330260000000002,-0.004886840000000001
14,0.7366,0.0,-0.1866401628,4.9866422984,0.012217100000000002,-0.007330260000000002,-0.004886840000000001
15,0.7849,0.0095712904,-0.1962114532,5.0105705244,0.012217100000000002,-0.00855197,-0.004886840000000001
15,0.7849,0.0095712904,-0.16271193679999998,5.0105705244,0.012217100000000002,-0.007330260000000002,-0.004886840000000001
15,0.7849,0.0047856452,-0.1770688724,5.0201418148,0.013438810000000002,-0.00855197,-0.004886840000000001
15,0.7849,0.014356935599999999,-0.20578274359999998,5.0297131052,0.013438810000000002,-0.00855197,-0.004886840000000001
15,0.7849,0.014356935599999999,-0.1818545176,5.0201418148,0.013438810000000002,-0.007330260000000002,-0.004886840000000001
15,0.7849,0.014356935599999999,-0.2009970984,4.9914279436,0.013438810000000002,-0.00855197,-0.004886840000000001
15,0.7849,0.0334995164,-0.215354034,4.9866422984,0.014660520000000003,-0.006108550000000001,-0.004886840000000001
15,0.7849,0.014356935599999999,-0.1770688724,5.0153561695999995,0.013438810000000002,-0.007330260000000002,-0.003665130000000001
15,0.7849,0.0191425808,-0.1770688724,5.0057848792,0.013438810000000002,-0.007330260000000002,-0.004886840000000001
15,0.7849,0.014356935599999999,-0.20578274359999998,5.0057848792,0.014660520000000003,-0.007330260000000002,-0.006108550000000001
15,0.7849,0.014356935599999999,-0.1962114532,4.9962135888,0.014660520000000003,-0.007330260000000002,-0.006108550000000001
15,0.7849,-0.0047856452,-0.1962114532,5.0392843956,0.013438810000000002,-0.007330260000000002,-0.004886840000000001
15,0.7849,0.0,-0.20578274359999998,5.000999234,0.012217100000000002,-0.006108550000000001,-0.006108550000000001
15,0.7849,0.023928226,-0.191425808,4.9914279436,0.013438810000000002,-0.007330260000000002,-0.007330260000000002
15,0.7849,0.0,-0.2009970984,5.0344987504,0.012217100000000002,-0.007330260000000002,-0.004886840000000001
15,0.7849,0.0095712904,-0.2105683888,5.02492746,0.012217100000000002,-0.007330260000000002,-0.004886840000000001
15,0.7849,0.0191425808,-0.2440679052,4.977071008,0.012217100000000002,-0.007330260000000002,-0.004886840000000001
15,0.7849,0.0095712904,-0.1770688724,4.977071008,0.014660520000000003,-0.006108550000000001,-0.004886840000000001
15,0.7849,0.0191425808,-0.1818545176,5.0057848792,0.012217100000000002,-0.007330260000000002,-0.004886840000000001
15,0.7849,0.0,-0.215354034,4.9818566531999995,0.014660520000000003,-0.004886840000000001,-0.003665130000000001
16,0.8343,0.023928226,-0.1818545176,4.9866422984,0.013438810000000002,-0.007330260000000002,-0.003665130000000001
16,0.8343,0.0191425808,-0.1962114532,4.9962135888,0.014660520000000003,-0.006108550000000001,-0.004886840000000001
16,0.8343,0.023928226,-0.1722832272,5.0105705244,0.013438810000000002,-0.007330260000000002,-0.006108550000000001
16,0.8343,0.057427742399999995,-0.1722832272,5.0392843956,0.013438810000000002,-0.00855197,-0.003665130000000001
16,0.8343,0.0047856452,-0.1770688724,5.0392843956,0.013438810000000002,-0.007330260000000002,-0.0024434200000000004
16,0.8343,0.0526420972,-0.1770688724,5.0344987504,0.012217100000000002,-0.007330260000000002,-0.006108550000000001
16,0.8343,0.028713871199999998,-0.191425808,4.9962135888,0.013438810000000002,-0.00855197,-0.004886840000000001
16,0.8343,0.014356935599999999,-0.1818545176,4.9818566531999995,0.012217100000000002,-0.007330260000000002,-0.006108550000000001
16,0.8343,0.0382851616,-0.1866401628,4.9866422984,0.012217100000000002,-0.00855197,-0.006108550000000001
16,0.8343,0.0191425808,-0.2105683888,4.977071008,0.013438810000000002,-0.007330260000000002,-0.004886840000000001
16,0.8343,0.023928226,-0.20578274359999998,4.9866422984,0.012217100000000002,-0.007330260000000002,-0.004886840000000001
16,0.8343,0.0095712904,-0.191425808,4.9962135888,0.012217100000000002,-0.00855197,-0.004886840000000001
16,0.8343,0.023928226,-0.2009970984,5.0057848792,0.013438810000000002,-0.007330260000000002,-0.003665130000000001
16,0.8343,0.014356935599999999,-0.191425808,5.0057848792,0.013438810000000002,-0.00855197,-0.004886840000000001
16,0.8343,0.0191425808,-0.1866401628,4.9818566531999995,0.013438810000000002,-0.006108550000000001,-0.003665130000000001
16,0.8343,0.0047856452,-0.20578274359999998,5.0057848792,0.012217100000000002,-0.00855197,-0.004886840000000001
16,0.8343,-0.0095712904,-0.1962114532,5.0105705244,0.013438810000000002,-0.007330260000000002,-0.004886840000000001
16,0.8343,0.0382851616,-0.191425808,5.0105705244,0.012217100000000002,-0.006108550000000001,-0.004886840000000001
16,0.8343,0.0382851616,-0.167497582,5.0297131052,0.012217100000000002,-0.007330260000000002,-0.004886840000000001
16,0.8343,0.014356935599999999,-0.1866401628,4.9866422984,0.013438810000000002,-0.007330260000000002,-0.003665130000000001
17,0.8828,0.014356935599999999,-0.1818545176,5.0105705244,0.012217100000000002,-0.007330260000000002,-0.003665130000000001
17,0.8828,0.0191425808,-0.1818545176,4.9435714916,0.012217100000000002,-0.007330260000000002,-0.007330260000000002
17,0.8828,0.0191425808,-0.1962114532,4.9962135888,0.012217100000000002,-0.00855197,-0.004886840000000001
17,0.8828,0.028713871199999998,-0.191425808,4.9962135888,0.014660520000000003,-0.007330260000000002,-0.006108550000000001
17,0.8828,0.0,-0.2105683888,5.0057848792,0.015882230000000004,-0.007330260000000002,-0.004886840000000001
17,0.8828,0.014356935599999999,-0.20578274359999998,5.000999234,0.014660520000000003,-0.007330260000000002,-0.004886840000000001
17,0.8828,0.0095712904,-0.2105683888,5.0105705244,0.014660520000000003,-0.00855197,-0.004886840000000001
17,0.8828,0.023928226,-0.1818545176,5.0105705244,0.013438810000000002,-0.00855197,-0.004886840000000001
17,0.8828,0.0047856452,-0.20578274359999998,5.02492746,0.013438810000000002,-0.00855197,-0.004886840000000001
17,0.8828,0.0095712904,-0.1722832272,4.9962135888,0.013438810000000002,-0.00855197,-0.006108550000000001
17,0.8828,0.047856452,-0.1962114532,5.000999234,0.012217100000000002,-0.007330260000000002,-0.006108550000000001
17,0.8828,0.014356935599999999,-0.2105683888,4.9866422984,0.013438810000000002,-0.007330260000000002,-0.004886840000000001
17,0.8828,0.0047856452,-0.1818545176,5.0153561695999995,0.013438810000000002,-0.00855197,-0.006108550000000001
17,0.8828,0.023928226,-0.1818545176,4.9914279436,0.013438810000000002,-0.007330260000000002,-0.006108550000000001
17,0.8828,0.0,-0.215354034,5.0201418148,0.012217100000000002,-0.00855197,-0.004886840000000001
17,0.8828,0.028713871199999998,-0.20578274359999998,5.000999234,0.013438810000000002,-0.007330260000000002,-0.004886840000000001
17,0.8828,0.028713871199999998,-0.22971096959999998,5.02492746,0.012217100000000002,-0.007330260000000002,-0.006108550000000001
17,0.8828,0.0191425808,-0.2009970984,5.000999234,0.013438810000000002,-0.00855197,-0.006108550000000001
17,0.8828,-0.0095712904,-0.20578274359999998,4.9914279436,0.013438810000000002,-0.007330260000000002,-0.004886840000000001
17,0.8828,0.0,-0.1866401628,5.0153561695999995,0.014660520000000003,-0.006108550000000001,-0.004886840000000001
18,0.9318,-0.0334995164,-0.2009970984,4.9962135888,0.014660520000000003,-0.007330260000000002,-0.006108550000000001
18,0.9318,0.023928226,-0.20578274359999998,5.0057848792,0.012217100000000002,-0.007330260000000002,-0.004886840000000001
18,0.9318,0.028713871199999998,-0.1962114532,5.000999234,0.012217100000000002,-0.007330260000000002,-0.004886840000000001
18,0.9318,0.028713871199999998,-0.167497582,5.0153561695999995,0.012217100000000002,-0.006108550000000001,-0.006108550000000001
18,0.9318,0.0191425808,-0.1866401628,5.0057848792,0.013438810000000002,-0.00855197,-0.004886840000000001
18,0.9318,-0.0047856452,-0.1770688724,4.9866422984,0.012217100000000002,-0.007330260000000002,-0.007330260000000002
18,0.9318,0.023928226,-0.2105683888,4.9866422984,0.013438810000000002,-0.00855197,-0.007330260000000002
18,0.9318,-0.0047856452,-0.2105683888,4.9914279436,0.013438810000000002,-0.007330260000000002,-0.004886840000000001
18,0.9318,0.014356935599999999,-0.191425808,4.9914279436,0.013438810000000002,-0.00855197,-0.004886840000000001
18,0.9318,0.0047856452,-0.215354034,4.977071008,0.013438810000000002,-0.00855197,-0.006108550000000001
18,0.9318,0.0191425808,-0.191425808,5.0105705244,0.013438810000000002,-0.007330260000000002,-0.004886840000000001
18,0.9318,0.057427742399999995,-0.1818545176,5.000999234,0.013438810000000002,-0.00855197,-0.004886840000000001
18,0.9318,0.0095712904,-0.1770688724,5.0057848792,0.012217100000000002,-0.00855197,-0.004886840000000001
18,0.9318,0.0047856452,-0.1962114532,5.0153561695999995,0.013438810000000002,-0.007330260000000002,-0.004886840000000001
18,0.9318,0.0191425808,-0.191425808,5.0201418148,0.014660520000000003,-0.007330260000000002,-0.003665130000000001
18,0.9318,0.0334995164,-0.1962114532,5.000999234,0.01710394,-0.007330260000000002,-0.004886840000000001
18,0.9318,0.0191425808,-0.191425808,5.0105705244,0.013438810000000002,-0.00855197,-0.003665130000000001
18,0.9318,0.023928226,-0.2009970984,4.9962135888,0.013438810000000002,-0.007330260000000002,-0.004886840000000001
18,0.9318,0.0334995164,-0.215354034,4.9962135888,0.013438810000000002,-0.006108550000000001,-0.006108550000000001
18,0.9318,0.0191425808,-0.1818545176,5.0057848792,0.012217100000000002,-0.00855197,-0.004886840000000001
19,0.9831,-0.0047856452,-0.1866401628,4.9866422984,0.012217100000000002,-0.00855197,-0.0024434200000000004
19,0.9831,0.0430708068,-0.2009970984,5.0057848792,0.013438810000000002,-0.007330260000000002,-0.004886840000000001
19,0.9831,0.0191425808,-0.2105683888,5.0344987504,0.013438810000000002,-0.007330260000000002,-0.003665130000000001
19,0.9831,0.028713871199999998,-0.1962114532,5.000999234,0.012217100000000002,-0.006108550000000001,-0.006108550000000001
19,0.9831,0.0047856452,-0.20578274359999998,5.0057848792,0.013438810000000002,-0.007330260000000002,-0.006108550000000001
19,0.9831,0.0095712904,-0.2009970984,4.9866422984,0.014660520000000003,-0.007330260000000002,-0.004886840000000001
19,0.9831,0.0047856452,-0.2009970984,5.0057848792,0.012217100000000002,-0.00855197,-0.004886840000000001
19,0.9831,0.0095712904,-0.1962114532,4.9914279436,0.013438810000000002,-0.007330260000000002,-0.006108550000000001
19,0.9831,0.023928226,-0.191425808,5.0057848792,0.012217100000000002,-0.007330260000000002,-0.003665130000000001
19,0.9831,0.023928226,-0.1962114532,5.0105705244,0.013438810000000002,-0.007330260000000002,-0.004886840000000001
19,0.9831,0.0382851616,-0.20578274359999998,4.9914279436,0.010995390000000002,-0.009773680000000002,-0.004886840000000001
19,0.9831,0.014356935599999999,-0.20578274359999998,5.0105705244,0.014660520000000003,-0.007330260000000002,-0.003665130000000001
19,0.9831,0.0047856452,-0.191425808,5.0105705244,0.013438810000000002,-0.007330260000000002,-0.003665130000000001
19,0.9831,0.023928226,-0.20578274359999998,5.0392843956,0.013438810000000002,-0.006108550000000001,-0.003665130000000001
19,0.9831,0.0,-0.1962114532,5.0392843956,0.012217100000000002,-0.007330260000000002,-0.004886840000000001
19,0.9831,0.0095712904,-0.1866401628,5.0201418148,0.013438810000000002,-0.00855197,-0.003665130000000001
19,0.9831,0.0334995164,-0.2009970984,5.000999234,0.014660520000000003,-0.007330260000000002,-0.004886840000000001
19,0.9831,0.0095712904,-0.167497582,5.000999234,0.013438810000000002,-0.007330260000000002,-0.004886840000000001
19,0.9831,0.028713871199999998,-0.20578274359999998,5.02492746,0.015882230000000004,-0.007330260000000002,-0.006108550000000001
19,0.9831,0.0334995164,-0.1962114532,4.9962135888,0.010995390000000002,-0.00855197,-0.004886840000000001
20,1.0309,0.0191425808,-0.167497582,5.0057848792,0.012217100000000002,-0.007330260000000002,-0.004886840000000001
20,1.0309,0.0334995164,-0.1818545176,5.0153561695999995,0.012217100000000002,-0.006108550000000001,-0.004886840000000001
20,1.0309,0.0,-0.1866401628,4.9866422984,0.013438810000000002,-0.007330260000000002,-0.006108550000000001
20,1.0309,0.0430708068,-0.1962114532,5.000999234,0.012217100000000002,-0.00855197,-0.006108550000000001
20,1.0309,0.014356935599999999,-0.2009970984,5.0297131052,0.014660520000000003,-0.007330260000000002,-0.006108550000000001
20,1.0309,0.0095712904,-0.1770688724,5.000999234,0.013438810000000002,-0.007330260000000002,-0.004886840000000001
20,1.0309,0.0334995164,-0.1866401628,4.9914279436,0.013438810000000002,-0.00855197,-0.003665130000000001
20,1.0309,0.0191425808,-0.1962114532,5.000999234,0.012217100000000002,-0.00855197,-0.003665130000000001
20,1.0309,0.0191425808,-0.1866401628,5.0153561695999995,0.010995390000000002,-0.00855197,-0.0024434200000000004
20,1.0309,0.028713871199999998,-0.1770688724,5.0057848792,0.012217100000000002,-0.006108550000000001,-0.004886840000000001
20,1.0309,0.028713871199999998,-0.20578274359999998,4.977071008,0.012217100000000002,-0.007330260000000002,-0.006108550000000001
20,1.0309,0.0047856452,-0.2105683888,4.9722853628,0.014660520000000003,-0.006108550000000001,-0.004886840000000001
20,1.0309,-0.0047856452,-0.191425808,4.9722853628,0.012217100000000002,-0.00855197,-0.004886840000000001
20,1.0309,0.0095712904,-0.1866401628,5.0105705244,0.013438810000000002,-0.00855197,-0.003665130000000001
20,1.0309,0.0334995164,-0.1962114532,4.9962135888,0.013438810000000002,-0.007330260000000002,-0.004886840000000001
20,1.0309,0.028713871199999998,-0.1866401628,5.0153561695999995,0.012217100000000002,-0.007330260000000002,-0.006108550000000001
20,1.0309,0.0,-0.2009970984,4.9962135888,0.013438810000000002,-0.007330260000000002,-0.006108550000000001
20,1.0309,0.023928226,-0.215354034,4.9914279436,0.013438810000000002,-0.006108550000000001,-0.003665130000000001
20,1.0309,0.0382851616,-0.2009970984,4.9962135888,0.012217100000000002,-0.00855197,-0.003665130000000001
20,1.0309,0.0095712904,-0.215354034,5.0201418148,0.013438810000000002,-0.007330260000000002,-0.004886840000000001
21,1.0778,-0.0047856452,-0.191425808,5.0105705244,0.013438810000000002,-0.007330260000000002,-0.004886840000000001
21,1.0778,0.028713871199999998,-0.1962114532,4.9962135888,0.013438810000000002,-0.007330260000000002,-0.0024434200000000004
21,1.0778,0.023928226,-0.2009970984,5.0153561695999995,0.013438810000000002,-0.007330260000000002,-0.004886840000000001
21,1.0778,-0.0047856452,-0.191425808,5.0105705244,0.013438810000000002,-0.006108550000000001,-0.004886840000000001
21,1.0778,0.0095712904,-0.215354034,4.9866422984,0.013438810000000002,-0.007330260000000002,-0.004886840000000001
21,1.0778,0.0191425808,-0.1962114532,4.9866422984,0.013438810000000002,-0.006108550000000001,-0.004886840000000001
21,1.0778,0.0430708068,-0.1866401628,5.0153561695999995,0.013438810000000002,-0.007330260000000002,-0.004886840000000001
21,1.0778,0.0,-0.1962114532,5.000999234,0.013438810000000002,-0.00855197,-0.004886840000000001
21,1.0778,0.0191425808,-0.2009970984,5.0153561695999995,0.013438810000000002,-0.00855197,-0.004886840000000001
21,1.0778,-0.0047856452,-0.2105683888,5.0057848792,0.013438810000000002,-0.007330260000000002,-0.004886840000000001
21,1.0778,0.014356935599999999,-0.20578274359999998,5.0201418148,0.012217100000000002,-0.006108550000000001,-0.004886840000000001
21,1.0778,0.0047856452,-0.2105683888,5.0105705244,0.013438810000000002,-0.006108550000000001,-0.004886840000000001
21,1.0778,0.014356935599999999,-0.1962114532,4.9914279436,0.012217100000000002,-0.00855197,-0.0024434200000000004
21,1.0778,0.028713871199999998,-0.2201396792,4.9674997176,0.014660520000000003,-0.007330260000000002,-0.004886840000000001
21,1.0778,0.0047856452,-0.20578274359999998,5.0153561695999995,0.014660520000000003,-0.00855197,-0.004886840000000001
21,1.0778,-0.0095712904,-0.1818545176,5.000999234,0.012217100000000002,-0.007330260000000002,-0.004886840000000001
21,1.0778,-0.014356935599999999,-0.1962114532,5.0201418148,0.012217100000000002,-0.007330260000000002,-0.003665130000000001
21,1.0778,-0.0047856452,-0.1962114532,5.000999234,0.012217100000000002,-0.007330260000000002,-0.003665130000000001
21,1.0778,0.014356935599999999,-0.1962114532,5.000999234,0.012217100000000002,-0.00855197,-0.006108550000000001
21,1.0778,-0.0095712904,-0.2009970984,5.0057848792,0.012217100000000002,-0.007330260000000002,-0.004886840000000001
22,1.1268,0.0047856452,-0.2009970984,5.0153561695999995,0.013438810000000002,-0.007330260000000002,-0.003665130000000001
22,1.1268,0.0334995164,-0.20578274359999998,4.9914279436,0.013438810000000002,-0.00855197,-0.004886840000000001
22,1.1268,0.0191425808,-0.2105683888,5.0297131052,0.013438810000000002,-0.00855197,-0.003665130000000001
22,1.1268,0.014356935599999999,-0.2105683888,5.0105705244,0.012217100000000002,-0.00855197,-0.004886840000000001
22,1.1268,0.0430708068,-0.1866401628,4.9914279436,0.013438810000000002,-0.00855197,-0.003665130000000001
22,1.1268,0.023928226,-0.191425808,5.0057848792,0.012217100000000002,-0.00855197,-0.004886840000000001
22,1.1268,0.023928226,-0.1866401628,5.02492746,0.014660520000000003,-0.006108550000000001,-0.004886840000000001
22,1.1268,0.0334995164,-0.20578274359999998,4.9962135888,0.014660520000000003,-0.007330260000000002,-0.003665130000000001
22,1.1268,0.023928226,-0.1866401628,4.9818566531999995,0.013438810000000002,-0.007330260000000002,-0.003665130000000001
22,1.1268,0.0334995164,-0.2009970984,5.0105705244,0.013438810000000002,-0.006108550000000001,-0.003665130000000001
22,1.1268,0.023928226,-0.1770688724,4.977071008,0.012217100000000002,-0.007330260000000002,-0.003665130000000001
22,1.1268,-0.0047856452,-0.1866401628,4.9914279436,0.013438810000000002,-0.007330260000000002,-0.004886840000000001
22,1.1268,0.0334995164,-0.1818545176,4.9866422984,0.013438810000000002,-0.006108550000000001,-0.004886840000000001
22,1.1268,0.028713871199999998,-0.1818545176,5.000999234,0.014660520000000003,-0.006108550000000001,-0.003665130000000001
22,1.1268,0.014356935599999999,-0.1818545176,4.9962135888,0.010995390000000002,-0.007330260000000002,-0.004886840000000001
22,1.1268,0.023928226,-0.191425808,5.000999234,0.012217100000000002,-0.007330260000000002,-0.004886840000000001
22,1.1268,0.028713871199999998,-0.20578274359999998,5.0057848792,0.012217100000000002,-0.007330260000000002,-0.004886840000000001
22,1.1268,0.0191425808,-0.1722832272,5.02492746,0.013438810000000002,-0.00855197,-0.004886840000000001
22,1.1268,0.023928226,-0.1818545176,4.9962135888,0.013438810000000002,-0.00855197,-0.004886840000000001
22,1.1268,0.014356935599999999,-0.191425808,5.0153561695999995,0.012217100000000002,-0.00855197,-0.003665130000000001
23,1.1763,0.0191425808,-0.20578274359999998,5.000999234,0.012217100000000002,-0.007330260000000002,-0.003665130000000001
23,1.1763,0.0191425808,-0.2009970984,5.000999234,0.012217100000000002,-0.00855197,-0.003665130000000001
23,1.1763,0.014356935599999999,-0.20578274359999998,4.9914279436,0.012217100000000002,-0.007330260000000002,-0.003665130000000001
23,1.1763,0.023928226,-0.191425808,5.000999234,0.012217100000000002,-0.006108550000000001,-0.006108550000000001
23,1.1763,0.0191425808,-0.215354034,5.0153561695999995,0.013438810000000002,-0.007330260000000002,-0.004886840000000001
23,1.1763,0.0095712904,-0.2105683888,5.000999234,0.012217100000000002,-0.007330260000000002,-0.004886840000000001
23,1.1763,0.023928226,-0.2009970984,4.977071008,0.013438810000000002,-0.007330260000000002,-0.006108550000000001
23,1.1763,0.0047856452,-0.1722832272,5.0153561695999995,0.013438810000000002,-0.007330260000000002,-0.006108550000000001
23,1.1763,0.028713871199999998,-0.191425808,4.977071008,0.013438810000000002,-0.007330260000000002,-0.006108550000000001
23,1.1763,0.0047856452,-0.2105683888,5.0153561695999995,0.013438810000000002,-0.00855197,-0.003665130000000001
23,1.1763,0.023928226,-0.2009970984,4.9962135888,0.013438810000000002,-0.007330260000000002,-0.003665130000000001
23,1.1763,0.0095712904,-0.191425808,4.9962135888,0.013438810000000002,-0.00855197,-0.0024434200000000004
23,1.1763,-0.0047856452,-0.2009970984,5.0057848792,0.013438810000000002,-0.00855197,-0.004886840000000001
23,1.1763,0.047856452,-0.191425808,4.9818566531999995,0.014660520000000003,-0.007330260000000002,-0.004886840000000001
23,1.1763,0.0191425808,-0.2009970984,5.000999234,0.013438810000000002,-0.007330260000000002,-0.003665130000000001
23,1.1763,0.028713871199999998,-0.2009970984,5.0153561695999995,0.013438810000000002,-0.007330260000000002,-0.004886840000000001
23,1.1763,-0.0047856452,-0.215354034,4.9914279436,0.013438810000000002,-0.007330260000000002,-0.004886840000000001
23,1.1763,0.0191425808,-0.1962114532,5.0057848792,0.013438810000000002,-0.007330260000000002,-0.006108550000000001
23,1.1763,0.028713871199999998,-0.2009970984,4.977071008,0.012217100000000002,-0.006108550000000001,-0.003665130000000001
23,1.1763,0.014356935599999999,-0.20578274359999998,4.977071008,0.014660520000000003,-0.007330260000000002,-0.004886840000000001
24,1.2248,-0.0191425808,-0.1962114532,5.0153561695999995,0.013438810000000002,-0.006108550000000001,-0.004886840000000001
24,1.2248,0.0047856452,-0.2105683888,4.977071008,0.010995390000000002,-0.007330260000000002,-0.004886840000000001
24,1.2248,0.0095712904,-0.191425808,4.9866422984,0.013438810000000002,-0.00855197,-0.004886840000000001
24,1.2248,0.0382851616,-0.1722832272,5.0201418148,0.012217100000000002,-0.007330260000000002,-0.003665130000000001
24,1.2248,0.023928226,-0.1579262916,5.0201418148,0.013438810000000002,-0.007330260000000002,-0.004886840000000001
24,1.2248,0.0,-0.1962114532,5.0057848792,0.013438810000000002,-0.00855197,-0.006108550000000001
24,1.2248,0.0095712904,-0.20578274359999998,4.977071008,0.013438810000000002,-0.00855197,-0.004886840000000001
24,1.2248,0.0095712904,-0.2249253244,4.977071008,0.012217100000000002,-0.007330260000000002,-0.004886840000000001
24,1.2248,0.0191425808,-0.191425808,5.0153561695999995,0.012217100000000002,-0.007330260000000002,-0.0024434200000000004
24,1.2248,-0.0047856452,-0.2105683888,4.9866422984,0.013438810000000002,-0.007330260000000002,-0.003665130000000001
24,1.2248,0.014356935599999999,-0.1962114532,4.9818566531999995,0.012217100000000002,-0.007330260000000002,-0.006108550000000001
24,1.2248,0.0047856452,-0.1866401628,5.0057848792,0.012217100000000002,-0.007330260000000002,-0.003665130000000001
24,1.2248,0.023928226,-0.2105683888,4.9818566531999995,0.010995390000000002,-0.007330260000000002,-0.004886840000000001
24,1.2248,0.0047856452,-0.2105683888,4.9866422984,0.013438810000000002,-0.006108550000000001,-0.004886840000000001
24,1.2248,0.0191425808,-0.1866401628,4.9962135888,0.012217100000000002,-0.007330260000000002,-0.004886840000000001
24,1.2248,0.0095712904,-0.1770688724,4.977071008,0.012217100000000002,-0.00855197,-0.006108550000000001
24,1.2248,0.023928226,-0.1818545176,5.0105705244,0.014660520000000003,-0.007330260000000002,-0.004886840000000001
24,1.2248,0.0430708068,-0.191425808,4.9962135888,0.013438810000000002,-0.009773680000000002,-0.003665130000000001
24,1.2248,0.0334995164,-0.1866401628,5.0057848792,0.014660520000000003,-0.00855197,-0.004886840000000001
24,1.2248,0.0334995164,-0.1818545176,4.977071008,0.014660520000000003,-0.007330260000000002,-0.006108550000000001
25,1.2802,0.014356935599999999,-0.1770688724,4.9962135888,0.013438810000000002,-0.006108550000000001,-0.004886840000000001
25,1.2802,0.0,-0.1818545176,5.0057848792,0.013438810000000002,-0.007330260000000002,-0.006108550000000001
25,1.2802,-0.0095712904,-0.2009970984,5.0057848792,0.014660520000000003,-0.00855197,-0.003665130000000001
25,1.2802,0.0191425808,-0.1866401628,4.9962135888,0.014660520000000003,-0.00855197,-0.004886840000000001
25,1.2802,0.0334995164,-0.1962114532,4.9866422984,0.014660520000000003,-0.00855197,-0.004886840000000001
25,1.2802,0.0191425808,-0.191425808,5.000999234,0.014660520000000003,-0.006108550000000001,-0.003665130000000001
25,1.2802,0.0,-0.2009970984,4.977071008,0.012217100000000002,-0.006108550000000001,-0.004886840000000001
25,1.2802,0.023928226,-0.1866401628,5.0153561695999995,0.014660520000000003,-0.007330260000000002,-0.004886840000000001
25,1.2802,0.0047856452,-0.1962114532,5.0153561695999995,0.012217100000000002,-0.007330260000000002,-0.004886840000000001
25,1.2802,0.0095712904,-0.1962114532,5.0105705244,0.013438810000000002,-0.009773680000000002,-0.003665130000000001
25,1.2802,0.0,-0.2201396792,5.0344987504,0.013438810000000002,-0.00855197,-0.004886840000000001
25,1.2802,0.0,-0.191425808,5.0153561695999995,0.014660520000000003,-0.006108550000000001,-0.004886840000000001
25,1.2802,0.0,-0.1722832272,4.9866422984,0.013438810000000002,-0.007330260000000002,-0.0024434200000000004
25,1.2802,0.023928226,-0.215354034,4.9914279436,0.012217100000000002,-0.007330260000000002,-0.003665130000000001
25,1.2802,0.0191425808,-0.2009970984,4.9962135888,0.013438810000000002,-0.007330260000000002,-0.004886840000000001
25,1.2802,0.014356935599999999,-0.1866401628,4.9962135888,0.012217100000000002,-0.00855197,-0.004886840000000001
25,1.2802,0.023928226,-0.1770688724,4.9962135888,0.013438810000000002,-0.007330260000000002,-0.003665130000000001
25,1.2802,-0.0047856452,-0.2009970984,5.000999234,0.013438810000000002,-0.007330260000000002,-0.003665130000000001
25,1.2802,0.0382851616,-0.215354034,5.02492746,0.013438810000000002,-0.007330260000000002,-0.004886840000000001
25,1.2802,0.014356935599999999,-0.2105683888,5.0057848792,0.012217100000000002,-0.007330260000000002,-0.006108550000000001
26,1.3249,0.028713871199999998,-0.1866401628,5.0057848792,0.012217100000000002,-0.007330260000000002,-0.004886840000000001
26,1.3249,0.023928226,-0.2201396792,5.0153561695999995,0.012217100000000002,-0.007330260000000002,-0.004886840000000001
26,1.3249,0.023928226,-0.20578274359999998,4.9962135888,0.013438810000000002,-0.007330260000000002,-0.003665130000000001
26,1.3249,0.0095712904,-0.2105683888,4.9866422984,0.013438810000000002,-0.007330260000000002,-0.004886840000000001
26,1.3249,0.023928226,-0.2105683888,5.0297131052,0.010995390000000002,-0.006108550000000001,-0.003665130000000001
26,1.3249,0.014356935599999999,-0.1962114532,5.02492746,0.014660520000000003,-0.007330260000000002,-0.003665130000000001
26,1.3249,0.023928226,-0.1818545176,5.02492746,0.012217100000000002,-0.007330260000000002,-0.003665130000000001
26,1.3249,0.0047856452,-0.2249253244,4.9914279436,0.012217100000000002,-0.007330260000000002,-0.003665130000000001
26,1.3249,-0.0191425808,-0.1962114532,4.9962135888,0.012217100000000002,-0.007330260000000002,-0.003665130000000001
26,1.3249,0.0095712904,-0.1818545176,4.9914279436,0.012217100000000002,-0.00855197,-0.003665130000000001
26,1.3249,0.0191425808,-0.1962114532,4.9866422984,0.013438810000000002,-0.00855197,-0.004886840000000001
26,1.3249,0.0,-0.20578274359999998,5.0057848792,0.013438810000000002,-0.007330260000000002,-0.004886840000000001
26,1.3249,0.023928226,-0.191425808,5.000999234,0.013438810000000002,-0.007330260000000002,-0.004886840000000001
26,1.3249,0.023928226,-0.1531406464,4.9914279436,0.013438810000000002,-0.006108550000000001,-0.006108550000000001
26,1.3249,0.014356935599999999,-0.1818545176,4.9866422984,0.013438810000000002,-0.00855197,-0.004886840000000001
26,1.3249,0.023928226,-0.1866401628,5.02492746,0.013438810000000002,-0.009773680000000002,-0.004886840000000001
26,1.3249,0.0334995164,-0.1770688724,5.0057848792,0.013438810000000002,-0.00855197,-0.003665130000000001
26,1.3249,0.047856452,-0.20578274359999998,5.0105705244,0.012217100000000002,-0.006108550000000001,-0.004886840000000001
26,1.3249,0.023928226,-0.1962114532,4.9962135888,0.014660520000000003,-0.00855197,-0.0024434200000000004
26,1.3249,0.0191425808,-0.1962114532,5.000999234,0.013438810000000002,-0.007330260000000002,-0.003665130000000001
27,1.3711,0.047856452,-0.20578274359999998,4.9962135888,0.013438810000000002,-0.007330260000000002,-0.006108550000000001
27,1.3711,0.014356935599999999,-0.1866401628,4.9914279436,0.012217100000000002,-0.007330260000000002,-0.007330260000000002
27,1.3711,0.0,-0.1866401628,4.9914279436,0.012217100000000002,-0.007330260000000002,-0.006108550000000001
27,1.3711,0.023928226,-0.2201396792,4.9818566531999995,0.014660520000000003,-0.007330260000000002,-0.004886840000000001
27,1.3711,0.0,-0.2009970984,5.0297131052,0.014660520000000003,-0.007330260000000002,-0.004886840000000001
27,1.3711,0.0526420972,-0.20578274359999998,5.0057848792,0.014660520000000003,-0.00855197,-0.006108550000000001
27,1.3711,0.023928226,-0.191425808,5.0057848792,0.010995390000000002,-0.00855197,-0.003665130000000001
27,1.3711,0.023928226,-0.215354034,5.0201418148,0.013438810000000002,-0.00855197,-0.004886840000000001
27,1.3711,0.028713871199999998,-0.20578274359999998,5.000999234,0.013438810000000002,-0.006108550000000001,-0.004886840000000001
27,1.3711,0.0095712904,-0.1866401628,4.9914279436,0.013438810000000002,-0.007330260000000002,-0.006108550000000001
27,1.3711,0.0095712904,-0.2009970984,5.0105705244,0.013438810000000002,-0.007330260000000002,-0.006108550000000001
27,1.3711,0.0095712904,-0.2009970984,5.0105705244,0.013438810000000002,-0.007330260000000002,-0.004886840000000001
27,1.3711,0.0095712904,-0.1962114532,5.0057848792,0.012217100000000002,-0.00855197,-0.0024434200000000004
27,1.3711,0.0,-0.215354034,5.0105705244,0.013438810000000002,-0.007330260000000002,-0.003665130000000001
27,1.3711,0.047856452,-0.215354034,5.0105705244,0.012217100000000002,-0.007330260000000002,-0.003665130000000001
27,1.3711,0.023928226,-0.1962114532,4.9962135888,0.012217100000000002,-0.00855197,-0.004886840000000001
27,1.3711,0.0191425808,-0.1962114532,4.9914279436,0.013438810000000002,-0.006108550000000001,-0.006108550000000001
27,1.3711,0.014356935599999999,-0.1962114532,5.0105705244,0.013438810000000002,-0.007330260000000002,-0.003665130000000001
27,1.3711,0.0191425808,-0.1962114532,4.9866422984,0.012217100000000002,-0.007330260000000002,-0.0024434200000000004
27,1.3711,0.0191425808,-0.2009970984,4.9818566531999995,0.013438810000000002,-0.006108550000000001,-0.006108550000000001
28,1.4214,0.028713871199999998,-0.191425808,5.0057848792,0.015882230000000004,-0.007330260000000002,-0.004886840000000001
28,1.4214,0.0430708068,-0.2105683888,5.0201418148,0.013438810000000002,-0.007330260000000002,-0.004886840000000001
28,1.4214,0.0430708068,-0.2009970984,4.9914279436,0.014660520000000003,-0.007330260000000002,-0.006108550000000001
28,1.4214,0.023928226,-0.2009970984,5.000999234,0.012217100000000002,-0.00855197,-0.003665130000000001
28,1.4214,0.0191425808,-0.1866401628,4.9866422984,0.013438810000000002,-0.007330260000000002,-0.004886840000000001
28,1.4214,0.0334995164,-0.1962114532,5.000999234,0.012217100000000002,-0.006108550000000001,-0.006108550000000001
28,1.4214,0.0047856452,-0.1866401628,4.9818566531999995,0.010995390000000002,-0.007330260000000002,-0.003665130000000001
28,1.4214,0.0,-0.1962114532,5.02492746,0.012217100000000002,-0.006108550000000001,-0.004886840000000001
28,1.4214,0.023928226,-0.1866401628,5.0057848792,0.013438810000000002,-0.006108550000000001,-0.0024434200000000004
28,1.4214,0.0191425808,-0.20578274359999998,5.0105705244,0.012217100000000002,-0.007330260000000002,-0.004886840000000001
28,1.4214,0.014356935599999999,-0.1962114532,5.000999234,0.014660520000000003,-0.007330260000000002,-0.004886840000000001
28,1.4214,0.0095712904,-0.1818545176,5.02492746,0.013438810000000002,-0.007330260000000002,-0.004886840000000001
28,1.4214,-0.0047856452,-0.2009970984,4.9866422984,0.013438810000000002,-0.00855197,-0.004886840000000001
28,1.4214,0.023928226,-0.1962114532,4.9962135888,0.012217100000000002,-0.007330260000000002,-0.004886840000000001
28,1.4214,0.028713871199999998,-0.191425808,4.9866422984,0.014660520000000003,-0.00855197,-0.003665130000000001
28,1.4214,0.028713871199999998,-0.191425808,5.0057848792,0.012217100000000002,-0.00855197,-0.003665130000000001
28,1.4214,0.023928226,-0.2009970984,5.000999234,0.013438810000000002,-0.009773680000000002,-0.004886840000000001
28,1.4214,0.0334995164,-0.215354034,4.9722853628,0.013438810000000002,-0.007330260000000002,-0.004886840000000001
28,1.4214,0.0382851616,-0.2105683888,5.000999234,0.013438810000000002,-0.007330260000000002,-0.006108550000000001
28,1.4214,0.014356935599999999,-0.1770688724,4.9674997176,0.012217100000000002,-0.007330260000000002,-0.004886840000000001
29,1.4694,0.0095712904,-0.2009970984,4.9914279436,0.012217100000000002,-0.007330260000000002,-0.006108550000000001
29,1.4694,0.023928226,-0.1962114532,4.9962135888,0.014660520000000003,-0.006108550000000001,-0.004886840000000001
29,1.4694,0.0430708068,-0.1770688724,5.0105705244,0.010995390000000002,-0.006108550000000001,-0.004886840000000001
29,1.4694,0.028713871199999998,-0.1770688724,4.9914279436,0.013438810000000002,-0.00855197,-0.007330260000000002
29,1.4694,0.014356935599999999,-0.1962114532,5.000999234,0.013438810000000002,-0.006108550000000001,-0.006108550000000001
29,1.4694,0.0191425808,-0.1962114532,5.000999234,0.012217100000000002,-0.004886840000000001,-0.004886840000000001
29,1.4694,0.028713871199999998,-0.1866401628,4.9962135888,0.012217100000000002,-0.006108550000000001,-0.004886840000000001
29,1.4694,0.0191425808,-0.1962114532,5.0153561695999995,0.013438810000000002,-0.007330260000000002,-0.003665130000000001
29,1.4694,0.0,-0.1818545176,4.9722853628,0.012217100000000002,-0.00855197,-0.004886840000000001
29,1.4694,0.0095712904,-0.191425808,5.0201418148,0.010995390000000002,-0.00855197,-0.006108550000000001
29,1.4694,0.028713871199999998,-0.1866401628,5.0153561695999995,0.012217100000000002,-0.007330260000000002,-0.003665130000000001
29,1.4694,0.047856452,-0.1962114532,5.0057848792,0.012217100000000002,-0.007330260000000002,-0.003665130000000001
29,1.4694,0.047856452,-0.1866401628,4.9914279436,0.013438810000000002,-0.007330260000000002,-0.006108550000000001
29,1.4694,0.0382851616,-0.1770688724,4.9914279436,0.012217100000000002,-0.006108550000000001,-0.006108550000000001
29,1.4694,0.0191425808,-0.1770688724,4.9914279436,0.014660520000000003,-0.00855197,-0.004886840000000001
29,1.4694,0.014356935599999999,-0.1866401628,4.9962135888,0.015882230000000004,-0.007330260000000002,-0.006108550000000001
29,1.4694,0.0,-0.20578274359999998,5.0057848792,0.014660520000000003,-0.007330260000000002,-0.004886840000000001
29,1.4694,0.028713871199999998,-0.191425808,4.9866422984,0.013438810000000002,-0.00855197,-0.003665130000000001
29,1.4694,0.0095712904,-0.1722832272,4.9818566531999995,0.013438810000000002,-0.007330260000000002,-0.0024434200000000004
29,1.4694,0.023928226,-0.1962114532,5.0057848792,0.014660520000000003,-0.007330260000000002,-0.006108550000000001
30,1.518,0.0,-0.1866401628,4.9962135888,0.012217100000000002,-0.007330260000000002,-0.006108550000000001
30,1.518,0.0334995164,-0.20578274359999998,5.0057848792,0.013438810000000002,-0.007330260000000002,-0.006108550000000001
30,1.518,0.0191425808,-0.2009970984,4.9866422984,0.012217100000000002,-0.007330260000000002,-0.003665130000000001
30,1.518,0.028713871199999998,-0.2201396792,4.9866422984,0.013438810000000002,-0.007330260000000002,-0.004886840000000001
30,1.518,0.0,-0.2105683888,4.9627140724,0.013438810000000002,-0.006108550000000001,-0.006108550000000001
30,1.518,0.0047856452,-0.1818545176,5.000999234,0.013438810000000002,-0.007330260000000002,-0.004886840000000001
30,1.518,0.014356935599999999,-0.2009970984,5.0105705244,0.013438810000000002,-0.00855197,-0.004886840000000001
30,1.518,0.023928226,-0.215354034,4.9914279436,0.014660520000000003,-0.007330260000000002,-0.003665130000000001
30,1.518,0.028713871199999998,-0.20578274359999998,4.9914279436,0.014660520000000003,-0.007330260000000002,-0.004886840000000001
30,1.518,0.0430708068,-0.2105683888,5.0057848792,0.013438810000000002,-0.007330260000000002,-0.004886840000000001
30,1.518,0.0334995164,-0.20578274359999998,4.9866422984,0.012217100000000002,-0.00855197,-0.004886840000000001
30,1.518,0.028713871199999998,-0.191425808,5.000999234,0.014660520000000003,-0.00855197,-0.003665130000000001
30,1.518,0.0095712904,-0.2009970984,4.9962135888,0.013438810000000002,-0.00855197,-0.004886840000000001
30,1.518,0.014356935599999999,-0.20578274359999998,5.0057848792,0.013438810000000002,-0.006108550000000001,-0.006108550000000001
30,1.518,0.0,-0.2105683888,5.0057848792,0.014660520000000003,-0.006108550000000001,-0.006108550000000001
30,1.518,-0.0047856452,-0.20578274359999998,4.9962135888,0.012217100000000002,-0.007330260000000002,-0.004886840000000001
30,1.518,-0.014356935599999999,-0.2249253244,5.02492746,0.014660520000000003,-0.007330260000000002,-0.004886840000000001
30,1.518,0.0334995164,-0.2009970984,4.9866422984,0.014660520000000003,-0.00855197,-0.004886840000000001
30,1.518,0.014356935599999999,-0.1770688724,5.000999234,0.013438810000000002,-0.00855197,-0.006108550000000001
30,1.518,0.0334995164,-0.167497582,4.9962135888,0.012217100000000002,-0.007330260000000002,-0.004886840000000001
31,1.5667,0.0047856452,-0.1818545176,4.9914279436,0.013438810000000002,-0.007330260000000002,-0.004886840000000001
31,1.5667,0.014356935599999999,-0.1866401628,4.9914279436,0.013438810000000002,-0.007330260000000002,-0.003665130000000001
31,1.5667,0.014356935599999999,-0.1866401628,4.9914279436,0.012217100000000002,-0.007330260000000002,-0.003665130000000001
31,1.5667,0.0095712904,-0.191425808,4.9962135888,0.013438810000000002,-0.007330260000000002,-0.003665130000000001
31,1.5667,0.028713871199999998,-0.2201396792,5.000999234,0.013438810000000002,-0.007330260000000002,-0.004886840000000001
31,1.5667,0.0430708068,-0.2201396792,5.0201418148,0.012217100000000002,-0.00855197,-0.004886840000000001
31,1.5667,0.014356935599999999,-0.2105683888,4.9722853628,0.013438810000000002,-0.00855197,-0.004886840000000001
31,1.5667,0.0,-0.1866401628,4.9962135888,0.013438810000000002,-0.007330260000000002,-0.003665130000000001
31,1.5667,0.023928226,-0.1866401628,4.9818566531999995,0.013438810000000002,-0.006108550000000001,-0.004886840000000001
31,1.5667,0.014356935599999999,-0.1962114532,5.000999234,0.014660520000000003,-0.00855197,-0.003665130000000001
31,1.5667,0.0382851616,-0.2105683888,4.9962135888,0.013438810000000002,-0.00855197,-0.004886840000000001
31,1.5667,0.0334995164,-0.1962114532,4.9962135888,0.013438810000000002,-0.00855197,-0.004886840000000001
31,1.5667,0.047856452,-0.167497582,5.0153561695999995,0.013438810000000002,-0.007330260000000002,-0.004886840000000001
31,1.5667,0.023928226,-0.2009970984,5.0057848792,0.013438810000000002,-0.006108550000000001,-0.004886840000000001
31,1.5667,-0.0047856452,-0.215354034,5.000999234,0.012217100000000002,-0.00855197,-0.004886840000000001
31,1.5667,-0.0095712904,-0.2009970984,5.000999234,0.012217100000000002,-0.007330260000000002,-0.006108550000000001
31,1.5667,0.0095712904,-0.2009970984,4.9962135888,0.012217100000000002,-0.007330260000000002,-0.003665130000000001
31,1.5667,0.014356935599999999,-0.2009970984,4.9914279436,0.013438810000000002,-0.006108550000000001,-0.003665130000000001
31,1.5667,0.0382851616,-0.2201396792,4.9962135888,0.013438810000000002,-0.007330260000000002,-0.004886840000000001
31,1.5667,0.014356935599999999,-0.2009970984,5.0105705244,0.012217100000000002,-0.007330260000000002,-0.004886840000000001
32,1.6164,0.0047856452,-0.2009970984,4.9914279436,0.013438810000000002,-0.00855197,-0.004886840000000001
32,1.6164,0.0191425808,-0.2105683888,4.9914279436,0.012217100000000002,-0.00855197,-0.004886840000000001
32,1.6164,0.028713871199999998,-0.2249253244,5.000999234,0.012217100000000002,-0.00855197,-0.004886840000000001
32,1.6164,0.0334995164,-0.191425808,5.0201418148,0.012217100000000002,-0.006108550000000001,-0.006108550000000001
32,1.6164,0.0191425808,-0.191425808,5.0057848792,0.013438810000000002,-0.007330260000000002,-0.004886840000000001
32,1.6164,0.0526420972,-0.1866401628,5.0297131052,0.012217100000000002,-0.00855197,-0.004886840000000001
32,1.6164,0.0334995164,-0.2009970984,5.0105705244,0.010995390000000002,-0.00855197,-0.004886840000000001
32,1.6164,0.014356935599999999,-0.1962114532,4.9962135888,0.013438810000000002,-0.007330260000000002,-0.006108550000000001
32,1.6164,0.023928226,-0.1866401628,4.9674997176,0.012217100000000002,-0.006108550000000001,-0.006108550000000001
32,1.6164,0.014356935599999999,-0.191425808,5.0057848792,0.013438810000000002,-0.00855197,-0.004886840000000001
32,1.6164,-0.0095712904,-0.1818545176,5.0201418148,0.012217100000000002,-0.007330260000000002,-0.006108550000000001
32,1.6164,0.0095712904,-0.20578274359999998,4.9962135888,0.012217100000000002,-0.007330260000000002,-0.006108550000000001
32,1.6164,0.0095712904,-0.2105683888,5.0105705244,0.012217100000000002,-0.007330260000000002,-0.003665130000000001
32,1.6164,0.0095712904,-0.2201396792,4.9914279436,0.014660520000000003,-0.006108550000000001,-0.004886840000000001
32,1.6164,0.0047856452,-0.191425808,4.9962135888,0.013438810000000002,-0.007330260000000002,-0.004886840000000001
32,1.6164,0.0047856452,-0.215354034,4.9866422984,0.013438810000000002,-0.006108550000000001,-0.006108550000000001
32,1.6164,0.0382851616,-0.2009970984,5.000999234,0.012217100000000002,-0.007330260000000002,-0.004886840000000001
32,1.6164,0.0334995164,-0.191425808,4.9818566531999995,0.014660520000000003,-0.00855197,-0.004886840000000001
32,1.6164,0.047856452,-0.215354034,4.977071008,0.013438810000000002,-0.00855197,-0.004886840000000001
32,1.6164,0.0382851616,-0.1866401628,4.977071008,0.013438810000000002,-0.007330260000000002,-0.004886840000000001
33,1.6637,0.0382851616,-0.191425808,5.0105705244,0.014660520000000003,-0.00855197,-0.003665130000000001
33,1.6637,0.0191425808,-0.191425808,5.000999234,0.012217100000000002,-0.00855197,-0.004886840000000001
33,1.6637,0.0095712904,-0.191425808,4.9962135888,0.014660520000000003,-0.00855197,-0.004886840000000001
33,1.6637,0.0382851616,-0.2249253244,5.0057848792,0.012217100000000002,-0.00855197,-0.003665130000000001
33,1.6637,0.014356935599999999,-0.2009970984,4.9962135888,0.013438810000000002,-0.007330260000000002,-0.006108550000000001
33,1.6637,0.0430708068,-0.1962114532,4.977071008,0.013438810000000002,-0.007330260000000002,-0.004886840000000001
33,1.6637,0.0430708068,-0.2105683888,5.000999234,0.013438810000000002,-0.00855197,-0.004886840000000001
33,1.6637,0.0095712904,-0.2009970984,5.0105705244,0.013438810000000002,-0.006108550000000001,-0.006108550000000001
33,1.6637,0.014356935599999999,-0.2009970984,5.000999234,0.013438810000000002,-0.007330260000000002,-0.003665130000000001
33,1.6637,0.028713871199999998,-0.1962114532,5.000999234,0.013438810000000002,-0.007330260000000002,-0.003665130000000001
33,1.6637,0.0430708068,-0.1962114532,5.0153561695999995,0.012217100000000002,-0.007330260000000002,-0.004886840000000001
33,1.6637,0.0095712904,-0.20578274359999998,5.0057848792,0.012217100000000002,-0.00855197,-0.003665130000000001
33,1.6637,0.0,-0.20578274359999998,4.9914279436,0.014660520000000003,-0.00855197,-0.006108550000000001
33,1.6637,0.0095712904,-0.1818545176,4.9818566531999995,0.013438810000000002,-0.007330260000000002,-0.006108550000000001
33,1.6637,0.0095712904,-0.215354034,5.000999234,0.012217100000000002,-0.007330260000000002,-0.006108550000000001
33,1.6637,0.0191425808,-0.1722832272,5.0105705244,0.013438810000000002,-0.00855197,-0.004886840000000001
33,1.6637,0.0334995164,-0.167497582,4.9914279436,0.013438810000000002,-0.007330260000000002,-0.004886840000000001
33,1.6637,0.014356935599999999,-0.1818545176,4.9962135888,0.012217100000000002,-0.006108550000000001,-0.004886840000000001
33,1.6637,0.0382851616,-0.1866401628,4.9914279436,0.013438810000000002,-0.00855197,-0.003665130000000001
33,1.6637,-0.0095712904,-0.2105683888,4.9579284272,0.014660520000000003,-0.007330260000000002,-0.004886840000000001
34,1.7148,0.0191425808,-0.191425808,5.0153561695999995,0.013438810000000002,-0.007330260000000002,-0.004886840000000001
34,1.7148,0.014356935599999999,-0.215354034,5.000999234,0.013438810000000002,-0.00855197,-0.004886840000000001
34,1.7148,0.0047856452,-0.20578274359999998,5.0057848792,0.013438810000000002,-0.006108550000000001,-0.003665130000000001
34,1.7148,-0.0047856452,-0.1770688724,4.9866422984,0.014660520000000003,-0.007330260000000002,-0.003665130000000001
34,1.7148,0.0095712904,-0.1818545176,4.977071008,0.013438810000000002,-0.007330260000000002,-0.004886840000000001
34,1.7148,0.0191425808,-0.215354034,4.9962135888,0.014660520000000003,-0.007330260000000002,-0.006108550000000001
34,1.7148,0.014356935599999999,-0.191425808,4.9818566531999995,0.013438810000000002,-0.007330260000000002,-0.006108550000000001
34,1.7148,0.0095712904,-0.20578274359999998,5.0057848792,0.013438810000000002,-0.007330260000000002,-0.006108550000000001
34,1.7148,0.028713871199999998,-0.2009970984,5.000999234,0.012217100000000002,-0.007330260000000002,-0.004886840000000001
34,1.7148,0.0526420972,-0.1818545176,4.9914279436,0.012217100000000002,-0.00855197,-0.004886840000000001
34,1.7148,0.0047856452,-0.2009970984,5.0201418148,0.012217100000000002,-0.00855197,-0.003665130000000001
34,1.7148,0.0191425808,-0.191425808,5.000999234,0.010995390000000002,-0.00855197,-0.003665130000000001
34,1.7148,-0.0047856452,-0.1866401628,5.02492746,0.014660520000000003,-0.007330260000000002,-0.006108550000000001
34,1.7148,0.0047856452,-0.1818545176,5.0297131052,0.013438810000000002,-0.007330260000000002,-0.006108550000000001
34,1.7148,0.0095712904,-0.2105683888,5.0105705244,0.013438810000000002,-0.007330260000000002,-0.004886840000000001
34,1.7148,0.0382851616,-0.1962114532,5.02492746,0.013438810000000002,-0.00855197,-0.0024434200000000004
34,1.7148,0.0669990328,-0.1866401628,5.0057848792,0.014660520000000003,-0.007330260000000002,-0.003665130000000001
34,1.7148,0.0382851616,-0.2105683888,4.9914279436,0.012217100000000002,-0.007330260000000002,-0.003665130000000001
34,1.7148,0.0191425808,-0.20578274359999998,5.000999234,0.013438810000000002,-0.007330260000000002,-0.004886840000000001
34,1.7148,0.0191425808,-0.20578274359999998,5.0153561695999995,0.013438810000000002,-0.006108550000000001,-0.004886840000000001
35,1.762,0.0095712904,-0.20578274359999998,5.0057848792,0.013438810000000002,-0.007330260000000002,-0.004886840000000001
35,1.762,0.0095712904,-0.191425808,5.0201418148,0.012217100000000002,-0.007330260000000002,-0.004886840000000001
35,1.762,0.014356935599999999,-0.1962114532,5.000999234,0.012217100000000002,-0.007330260000000002,-0.004886840000000001
35,1.762,0.028713871199999998,-0.16271193679999998,5.000999234,0.013438810000000002,-0.007330260000000002,-0.004886840000000001
35,1.762,0.0,-0.2009970984,4.9866422984,0.012217100000000002,-0.006108550000000001,-0.006108550000000001
35,1.762,0.0047856452,-0.215354034,5.000999234,0.012217100000000002,-0.00855197,-0.003665130000000001
35,1.762,0.014356935599999999,-0.215354034,5.0297131052,0.012217100000000002,-0.007330260000000002,-0.004886840000000001
35,1.762,0.0095712904,-0.1866401628,5.0105705244,0.012217100000000002,-0.007330260000000002,-0.004886840000000001
35,1.762,0.0382851616,-0.191425808,5.000999234,0.012217100000000002,-0.007330260000000002,-0.004886840000000001
35,1.762,0.028713871199999998,-0.1962114532,4.9962135888,0.012217100000000002,-0.007330260000000002,-0.004886840000000001
35,1.762,0.0382851616,-0.1866401628,4.9962135888,0.013438810000000002,-0.006108550000000001,-0.004886840000000001
35,1.762,0.028713871199999998,-0.167497582,4.9866422984,0.012217100000000002,-0.007330260000000002,-0.004886840000000001
35,1.762,0.014356935599999999,-0.20578274359999998,4.9914279436,0.013438810000000002,-0.007330260000000002,-0.006108550000000001
35,1.762,0.0095712904,-0.215354034,5.000999234,0.012217100000000002,-0.007330260000000002,-0.003665130000000001
35,1.762,0.0191425808,-0.191425808,5.0344987504,0.012217100000000002,-0.007330260000000002,-0.003665130000000001
35,1.762,0.023928226,-0.1962114532,5.0105705244,0.014660520000000003,-0.007330260000000002,-0.003665130000000001
35,1.762,0.023928226,-0.191425808,4.9962135888,0.013438810000000002,-0.007330260000000002,-0.004886840000000001
35,1.762,0.0095712904,-0.1962114532,5.0153561695999995,0.013438810000000002,-0.006108550000000001,-0.004886840000000001
35,1.762,0.0382851616,-0.1866401628,5.0201418148,0.012217100000000002,-0.006108550000000001,-0.003665130000000001
35,1.762,0.014356935599999999,-0.2009970984,5.000999234,0.012217100000000002,-0.006108550000000001,-0.004886840000000001
36,1.8111,0.0191425808,-0.2009970984,5.0201418148,0.012217100000000002,-0.007330260000000002,-0.004886840000000001
36,1.8111,0.023928226,-0.191425808,5.0057848792,0.013438810000000002,-0.007330260000000002,-0.003665130000000001
36,1.8111,0.0430708068,-0.191425808,5.0057848792,0.014660520000000003,-0.007330260000000002,-0.003665130000000001
36,1.8111,0.028713871199999998,-0.1866401628,5.0105705244,0.013438810000000002,-0.007330260000000002,-0.003665130000000001
36,1.8111,0.028713871199999998,-0.2009970984,5.000999234,0.013438810000000002,-0.007330260000000002,-0.004886840000000001
36,1.8111,0.023928226,-0.1866401628,5.000999234,0.012217100000000002,-0.007330260000000002,-0.004886840000000001
36,1.8111,0.0191425808,-0.1962114532,5.0057848792,0.013438810000000002,-0.007330260000000002,-0.004886840000000001
36,1.8111,0.0334995164,-0.1866401628,4.9914279436,0.012217100000000002,-0.007330260000000002,-0.004886840000000001
36,1.8111,0.0191425808,-0.1818545176,4.9962135888,0.012217100000000002,-0.007330260000000002,-0.004886840000000001
36,1.8111,0.028713871199999998,-0.1770688724,5.0201418148,0.013438810000000002,-0.007330260000000002,-0.006108550000000001
36,1.8111,0.028713871199999998,-0.2201396792,4.9962135888,0.012217100000000002,-0.007330260000000002,-0.004886840000000001
36,1.8111,0.028713871199999998,-0.191425808,4.9866422984,0.012217100000000002,-0.006108550000000001,-0.003665130000000001
36,1.8111,0.0334995164,-0.1962114532,5.0297131052,0.012217100000000002,-0.007330260000000002,-0.003665130000000001
36,1.8111,-0.0095712904,-0.1866401628,4.9866422984,0.013438810000000002,-0.007330260000000002,-0.004886840000000001
36,1.8111,0.028713871199999998,-0.20578274359999998,4.9962135888,0.013438810000000002,-0.007330260000000002,-0.004886840000000001
36,1.8111,-0.0095712904,-0.2009970984,5.0057848792,0.012217100000000002,-0.00855197,-0.004886840000000001
36,1.8111,0.014356935599999999,-0.2105683888,5.000999234,0.013438810000000002,-0.007330260000000002,-0.004886840000000001
36,1.8111,0.028713871199999998,-0.215354034,4.9962135888,0.013438810000000002,-0.00855197,-0.003665130000000001
36,1.8111,0.0047856452,-0.1962114532,5.0105705244,0.012217100000000002,-0.00855197,-0.006108550000000001
36,1.8111,0.0095712904,-0.1962114532,4.9962135888,0.012217100000000002,-0.007330260000000002,-0.0024434200000000004
37,1.8648,0.028713871199999998,-0.1818545176,4.9866422984,0.013438810000000002,-0.007330260000000002,-0.003665130000000001
37,1.8648,0.0191425808,-0.20578274359999998,4.9914279436,0.014660520000000003,-0.006108550000000001,-0.006108550000000001
37,1.8648,-0.0047856452,-0.2249253244,4.9866422984,0.013438810000000002,-0.00855197,-0.004886840000000001
37,1.8648,0.014356935599999999,-0.2201396792,5.02492746,0.013438810000000002,-0.006108550000000001,-0.006108550000000001
37,1.8648,0.0,-0.191425808,5.0201418148,0.013438810000000002,-0.007330260000000002,-0.004886840000000001
37,1.8648,0.014356935599999999,-0.1866401628,4.9866422984,0.013438810000000002,-0.00855197,-0.004886840000000001
37,1.8648,0.0,-0.2009970984,5.0057848792,0.013438810000000002,-0.007330260000000002,-0.004886840000000001
37,1.8648,0.0,-0.191425808,5.000999234,0.013438810000000002,-0.00855197,-0.004886840000000001
37,1.8648,0.0191425808,-0.1962114532,4.9866422984,0.013438810000000002,-0.00855197,-0.004886840000000001
37,1.8648,0.0430708068,-0.167497582,5.000999234,0.014660520000000003,-0.007330260000000002,-0.004886840000000001
37,1.8648,0.0382851616,-0.1722832272,5.0057848792,0.013438810000000002,-0.00855197,-0.004886840000000001
37,1.8648,0.028713871199999998,-0.2105683888,5.000999234,0.013438810000000002,-0.007330260000000002,-0.003665130000000001
37,1.8648,0.0334995164,-0.1818545176,5.000999234,0.013438810000000002,-0.007330260000000002,-0.004886840000000001
37,1.8648,0.0047856452,-0.191425808,5.0057848792,0.013438810000000002,-0.006108550000000001,-0.006108550000000001
37,1.8648,0.0334995164,-0.191425808,4.9914279436,0.013438810000000002,-0.007330260000000002,-0.004886840000000001
37,1.8648,0.0047856452,-0.1962114532,5.0153561695999995,0.013438810000000002,-0.007330260000000002,-0.006108550000000001
37,1.8648,0.0382851616,-0.1818545176,4.9962135888,0.013438810000000002,-0.00855197,-0.004886840000000001
37,1.8648,0.0334995164,-0.2009970984,5.0153561695999995,0.012217100000000002,-0.00855197,-0.006108550000000001
37,1.8648,0.0,-0.20578274359999998,4.9866422984,0.012217100000000002,-0.00855197,-0.004886840000000001
37,1.8648,0.028713871199999998,-0.1770688724,4.9866422984,0.012217100000000002,-0.00855197,-0.004886840000000001
38,1.9089,0.0526420972,-0.191425808,4.9866422984,0.013438810000000002,-0.00855197,-0.003665130000000001
38,1.9089,0.0382851616,-0.1770688724,5.0057848792,0.013438810000000002,-0.007330260000000002,-0.004886840000000001
38,1.9089,0.028713871199999998,-0.20578274359999998,4.9914279436,0.012217100000000002,-0.007330260000000002,-0.004886840000000001
38,1.9089,0.0191425808,-0.20578274359999998,5.0057848792,0.012217100000000002,-0.007330260000000002,-0.004886840000000001
38,1.9089,0.0095712904,-0.1866401628,5.000999234,0.013438810000000002,-0.007330260000000002,-0.006108550000000001
38,1.9089,0.014356935599999999,-0.1770688724,5.000999234,0.014660520000000003,-0.007330260000000002,-0.006108550000000001
38,1.9089,0.023928226,-0.215354034,4.9914279436,0.013438810000000002,-0.00855197,-0.003665130000000001
38,1.9089,0.0047856452,-0.1866401628,5.0201418148,0.014660520000000003,-0.007330260000000002,-0.004886840000000001
38,1.9089,0.023928226,-0.1722832272,5.0057848792,0.013438810000000002,-0.007330260000000002,-0.004886840000000001
38,1.9089,0.0047856452,-0.1962114532,4.9866422984,0.012217100000000002,-0.00855197,-0.004886840000000001
38,1.9089,0.023928226,-0.191425808,5.0201418148,0.013438810000000002,-0.00855197,-0.003665130000000001
38,1.9089,0.0334995164,-0.191425808,5.0057848792,0.014660520000000003,-0.007330260000000002,-0.004886840000000001
38,1.9089,0.028713871199999998,-0.215354034,5.000999234,0.013438810000000002,-0.00855197,-0.006108550000000001
38,1.9089,0.028713871199999998,-0.1962114532,4.977071008,0.010995390000000002,-0.007330260000000002,-0.004886840000000001
38,1.9089,0.0191425808,-0.1962114532,5.0105705244,0.012217100000000002,-0.007330260000000002,-0.003665130000000001
38,1.9089,0.0191425808,-0.22971096959999998,5.000999234,0.013438810000000002,-0.00855197,-0.006108550000000001
38,1.9089,0.014356935599999999,-0.2009970984,4.9866422984,0.013438810000000002,-0.00855197,-0.003665130000000001
38,1.9089,0.0095712904,-0.1770688724,5.0057848792,0.013438810000000002,-0.00855197,-0.004886840000000001
38,1.9089,0.0,-0.1818545176,4.9962135888,0.012217100000000002,-0.007330260000000002,-0.003665130000000001
38,1.9089,0.0191425808,-0.1866401628,4.9722853628,0.012217100000000002,-0.007330260000000002,-0.004886840000000001
39,1.9585,0.028713871199999998,-0.1770688724,4.9962135888,0.013438810000000002,-0.006108550000000001,-0.003665130000000001
39,1.9585,0.0191425808,-0.20578274359999998,5.0057848792,0.013438810000000002,-0.007330260000000002,-0.003665130000000001
39,1.9585,0.0334995164,-0.2105683888,4.977071008,0.013438810000000002,-0.00855197,-0.003665130000000001
39,1.9585,0.023928226,-0.2105683888,5.000999234,0.013438810000000002,-0.00855197,-0.003665130000000001
39,1.9585,0.0191425808,-0.1866401628,5.0057848792,0.013438810000000002,-0.00855197,-0.0024434200000000004
39,1.9585,0.028713871199999998,-0.1818545176,5.0057848792,0.013438810000000002,-0.007330260000000002,-0.003665130000000001
39,1.9585,0.023928226,-0.1866401628,5.0105705244,0.012217100000000002,-0.007330260000000002,-0.004886840000000001
39,1.9585,0.014356935599999999,-0.2009970984,5.0105705244,0.012217100000000002,-0.007330260000000002,-0.004886840000000001
39,1.9585,0.023928226,-0.1866401628,5.0153561695999995,0.014660520000000003,-0.00855197,-0.003665130000000001
39,1.9585,0.0047856452,-0.1866401628,5.0057848792,0.013438810000000002,-0.007330260000000002,-0.004886840000000001
39,1.9585,0.0191425808,-0.20578274359999998,5.02492746,0.013438810000000002,-0.009773680000000002,-0.006108550000000001
39,1.9585,0.0047856452,-0.2009970984,5.0057848792,0.013438810000000002,-0.007330260000000002,-0.003665130000000001
39,1.9585,0.0,-0.2105683888,4.9866422984,0.013438810000000002,-0.00855197,-0.004886840000000001
39,1.9585,0.023928226,-0.1866401628,5.0105705244,0.013438810000000002,-0.007330260000000002,-0.003665130000000001
39,1.9585,0.0191425808,-0.1962114532,5.0105705244,0.013438810000000002,-0.007330260000000002,-0.004886840000000001
39,1.9585,0.0334995164,-0.1962114532,5.000999234,0.014660520000000003,-0.00855197,-0.003665130000000001
39,1.9585,0.028713871199999998,-0.2009970984,4.9866422984,0.010995390000000002,-0.007330260000000002,-0.003665130000000001
39,1.9585,0.0095712904,-0.167497582,5.000999234,0.012217100000000002,-0.009773680000000002,-0.006108550000000001
39,1.9585,0.0047856452,-0.2009970984,5.02492746,0.013438810000000002,-0.00855197,-0.003665130000000001
39,1.9585,0.0047856452,-0.191425808,5.0105705244,0.013438810000000002,-0.007330260000000002,-0.006108550000000001
40,2.0071,0.0334995164,-0.1579262916,4.9818566531999995,0.014660520000000003,-0.007330260000000002,-0.006108550000000001
40,2.0071,0.0095712904,-0.1818545176,4.9962135888,0.013438810000000002,-0.007330260000000002,-0.003665130000000001
40,2.0071,0.023928226,-0.1818545176,4.9962135888,0.012217100000000002,-0.007330260000000002,-0.003665130000000001
40,2.0071,0.023928226,-0.2105683888,5.0057848792,0.013438810000000002,-0.007330260000000002,-0.004886840000000001
40,2.0071,0.028713871199999998,-0.20578274359999998,5.0297131052,0.013438810000000002,-0.006108550000000001,-0.006108550000000001
40,2.0071,0.0095712904,-0.191425808,5.000999234,0.014660520000000003,-0.00855197,-0.003665130000000001
40,2.0071,0.028713871199999998,-0.2105683888,4.9914279436,0.012217100000000002,-0.007330260000000002,-0.003665130000000001
40,2.0071,0.023928226,-0.20578274359999998,5.000999234,0.013438810000000002,-0.007330260000000002,-0.004886840000000001
40,2.0071,0.023928226,-0.1962114532,5.000999234,0.012217100000000002,-0.007330260000000002,-0.004886840000000001
40,2.0071,-0.0047856452,-0.1866401628,4.9914279436,0.013438810000000002,-0.007330260000000002,-0.003665130000000001
40,2.0071,0.0,-0.1770688724,5.0057848792,0.012217100000000002,-0.007330260000000002,-0.004886840000000001
40,2.0071,0.0047856452,-0.167497582,5.000999234,0.012217100000000002,-0.007330260000000002,-0.004886840000000001
40,2.0071,0.0334995164,-0.1962114532,5.0153561695999995,0.013438810000000002,-0.007330260000000002,-0.006108550000000001
40,2.0071,0.0382851616,-0.2009970984,5.0105705244,0.013438810000000002,-0.00855197,-0.006108550000000001
40,2.0071,0.0526420972,-0.191425808,5.000999234,0.013438810000000002,-0.00855197,-0.004886840000000001
40,2.0071,0.0095712904,-0.191425808,5.0057848792,0.012217100000000002,-0.006108550000000001,-0.003665130000000001
40,2.0071,0.0095712904,-0.20578274359999998,4.9914279436,0.013438810000000002,-0.006108550000000001,-0.004886840000000001
40,2.0071,0.028713871199999998,-0.215354034,4.9914279436,0.012217100000000002,-0.007330260000000002,-0.006108550000000001
40,2.0071,0.0191425808,-0.1722832272,4.9962135888,0.013438810000000002,-0.007330260000000002,-0.006108550000000001
40,2.0071,0.0,-0.1962114532,5.0105705244,0.013438810000000002,-0.00855197,-0.004886840000000001
41,2.0548,0.0,-0.1962114532,5.0297131052,0.013438810000000002,-0.00855197,-0.004886840000000001
41,2.0548,0.0095712904,-0.2009970984,4.9962135888,0.014660520000000003,-0.006108550000000001,-0.006108550000000001
41,2.0548,-0.0047856452,-0.2009970984,5.0057848792,0.013438810000000002,-0.006108550000000001,-0.006108550000000001
41,2.0548,0.057427742399999995,-0.2201396792,5.0105705244,0.013438810000000002,-0.007330260000000002,-0.004886840000000001
41,2.0548,0.0382851616,-0.1962114532,4.9914279436,0.014660520000000003,-0.007330260000000002,-0.004886840000000001
41,2.0548,0.0047856452,-0.215354034,4.9866422984,0.012217100000000002,-0.006108550000000001,-0.003665130000000001
41,2.0548,0.014356935599999999,-0.1818545176,4.9914279436,0.012217100000000002,-0.007330260000000002,-0.004886840000000001
41,2.0548,0.0047856452,-0.1866401628,5.0153561695999995,0.014660520000000003,-0.006108550000000001,-0.004886840000000001
41,2.0548,0.014356935599999999,-0.1962114532,4.9914279436,0.012217100000000002,-0.00855197,-0.004886840000000001
41,2.0548,0.014356935599999999,-0.1770688724,4.9962135888,0.013438810000000002,-0.007330260000000002,-0.004886840000000001
41,2.0548,0.0334995164,-0.191425808,5.0105705244,0.012217100000000002,-0.006108550000000001,-0.006108550000000001
41,2.0548,0.0047856452,-0.1818545176,5.0105705244,0.013438810000000002,-0.007330260000000002,-0.004886840000000001
41,2.0548,0.028713871199999998,-0.2009970984,5.0105705244,0.013438810000000002,-0.007330260000000002,-0.006108550000000001
41,2.0548,0.023928226,-0.215354034,5.0297131052,0.014660520000000003,-0.007330260000000002,-0.004886840000000001
41,2.0548,0.0191425808,-0.2105683888,5.02492746,0.013438810000000002,-0.007330260000000002,-0.004886840000000001
41,2.0548,0.0047856452,-0.1962114532,5.0105705244,0.012217100000000002,-0.00855197,-0.004886840000000001
41,2.0548,0.0191425808,-0.1818545176,5.0344987504,0.013438810000000002,-0.007330260000000002,-0.004886840000000001
41,2.0548,0.0047856452,-0.191425808,5.02492746,0.012217100000000002,-0.007330260000000002,-0.004886840000000001
41,2.0548,0.0191425808,-0.1770688724,5.0201418148,0.012217100000000002,-0.00855197,-0.003665130000000001
41,2.0548,0.0430708068,-0.215354034,4.9914279436,0.013438810000000002,-0.00855197,-0.006108550000000001
42,2.1054,0.028713871199999998,-0.2201396792,4.9962135888,0.013438810000000002,-0.00855197,-0.004886840000000001
42,2.1054,0.023928226,-0.2105683888,4.9914279436,0.012217100000000002,-0.007330260000000002,-0.003665130000000001
42,2.1054,0.014356935599999999,-0.1962114532,4.9866422984,0.013438810000000002,-0.00855197,-0.006108550000000001
42,2.1054,0.0,-0.1866401628,4.9962135888,0.012217100000000002,-0.007330260000000002,-0.004886840000000001
42,2.1054,0.014356935599999999,-0.191425808,5.0297131052,0.014660520000000003,-0.007330260000000002,-0.004886840000000001
42,2.1054,0.023928226,-0.1866401628,5.0153561695999995,0.013438810000000002,-0.007330260000000002,-0.003665130000000001
42,2.1054,0.0047856452,-0.1866401628,5.0201418148,0.012217100000000002,-0.00855197,-0.006108550000000001
42,2.1054,0.0,-0.1818545176,4.9962135888,0.013438810000000002,-0.007330260000000002,-0.006108550000000001
42,2.1054,-0.0047856452,-0.1579262916,5.0153561695999995,0.012217100000000002,-0.007330260000000002,-0.004886840000000001
42,2.1054,0.023928226,-0.2105683888,5.0105705244,0.013438810000000002,-0.00855197,-0.003665130000000001
42,2.1054,0.0095712904,-0.1962114532,5.0105705244,0.012217100000000002,-0.007330260000000002,-0.006108550000000001
42,2.1054,0.0,-0.215354034,5.0153561695999995,0.013438810000000002,-0.006108550000000001,-0.006108550000000001
42,2.1054,0.028713871199999998,-0.1866401628,4.9914279436,0.014660520000000003,-0.007330260000000002,-0.003665130000000001
42,2.1054,0.014356935599999999,-0.1818545176,5.0153561695999995,0.013438810000000002,-0.006108550000000001,-0.003665130000000001
42,2.1054,0.0191425808,-0.1866401628,5.0057848792,0.014660520000000003,-0.00855197,-0.004886840000000001
42,2.1054,0.014356935599999999,-0.1962114532,4.9962135888,0.013438810000000002,-0.007330260000000002,-0.004886840000000001
42,2.1054,0.0095712904,-0.191425808,5.0105705244,0.014660520000000003,-0.007330260000000002,-0.004886840000000001
42,2.1054,0.0191425808,-0.2201396792,4.9962135888,0.014660520000000003,-0.007330260000000002,-0.003665130000000001
42,2.1054,0.0095712904,-0.2009970984,5.0297131052,0.013438810000000002,-0.007330260000000002,-0.003665130000000001
42,2.1054,0.0191425808,-0.1818545176,5.0105705244,0.013438810000000002,-0.00855197,-0.003665130000000001
43,2.1527,0.023928226,-0.1962114532,4.9962135888,0.013438810000000002,-0.007330260000000002,-0.004886840000000001
43,2.1527,0.028713871199999998,-0.1770688724,4.9866422984,0.013438810000000002,-0.00855197,-0.004886840000000001
43,2.1527,0.023928226,-0.1962114532,5.0057848792,0.013438810000000002,-0.006108550000000001,-0.004886840000000001
43,2.1527,0.0,-0.1962114532,4.9866422984,0.013438810000000002,-0.007330260000000002,-0.0024434200000000004
43,2.1527,-0.014356935599999999,-0.1866401628,4.9962135888,0.013438810000000002,-0.007330260000000002,-0.003665130000000001
43,2.1527,0.0191425808,-0.1962114532,4.9722853628,0.013438810000000002,-0.007330260000000002,-0.004886840000000001
43,2.1527,0.0,-0.1818545176,4.9962135888,0.012217100000000002,-0.007330260000000002,-0.003665130000000001
43,2.1527,0.0334995164,-0.2009970984,5.000999234,0.013438810000000002,-0.00855197,-0.004886840000000001
43,2.1527,0.0430708068,-0.1722832272,4.9866422984,0.013438810000000002,-0.00855197,-0.004886840000000001
43,2.1527,0.023928226,-0.1866401628,4.9962135888,0.013438810000000002,-0.007330260000000002,-0.004886840000000001
43,2.1527,0.0047856452,-0.191425808,5.000999234,0.013438810000000002,-0.00855197,-0.004886840000000001
43,2.1527,0.023928226,-0.1866401628,5.02492746,0.013438810000000002,-0.007330260000000002,-0.004886840000000001
43,2.1527,0.0047856452,-0.1962114532,5.0201418148,0.013438810000000002,-0.007330260000000002,-0.003665130000000001
43,2.1527,0.047856452,-0.1866401628,4.9866422984,0.013438810000000002,-0.007330260000000002,-0.004886840000000001
43,2.1527,0.014356935599999999,-0.1818545176,5.0105705244,0.013438810000000002,-0.007330260000000002,-0.003665130000000001
43,2.1527,0.0334995164,-0.20578274359999998,5.0057848792,0.012217100000000002,-0.00855197,-0.004886840000000001
43,2.1527,0.014356935599999999,-0.22971096959999998,5.0057848792,0.010995390000000002,-0.007330260000000002,-0.006108550000000001
43,2.1527,0.014356935599999999,-0.1866401628,5.0297131052,0.010995390000000002,-0.007330260000000002,-0.006108550000000001
43,2.1527,0.023928226,-0.20578274359999998,5.0153561695999995,0.013438810000000002,-0.00855197,-0.004886840000000001
43,2.1527,0.028713871199999998,-0.167497582,5.0153561695999995,0.013438810000000002,-0.006108550000000001,-0.004886840000000001
44,2.2015,0.0047856452,-0.1818545176,5.0105705244,0.013438810000000002,-0.007330260000000002,-0.004886840000000001
44,2.2015,0.0095712904,-0.191425808,5.0057848792,0.013438810000000002,-0.00855197,-0.006108550000000001
44,2.2015,0.023928226,-0.1866401628,4.9962135888,0.014660520000000003,-0.007330260000000002,-0.004886840000000001
44,2.2015,0.0382851616,-0.1962114532,4.9962135888,0.014660520000000003,-0.007330260000000002,-0.004886840000000001
44,2.2015,0.057427742399999995,-0.1770688724,4.9962135888,0.013438810000000002,-0.006108550000000001,-0.003665130000000001
44,2.2015,0.023928226,-0.1818545176,5.02492746,0.012217100000000002,-0.007330260000000002,-0.003665130000000001
44,2.2015,0.028713871199999998,-0.1866401628,5.0057848792,0.012217100000000002,-0.007330260000000002,-0.003665130000000001
44,2.2015,0.0191425808,-0.2009970984,4.9818566531999995,0.013438810000000002,-0.007330260000000002,-0.003665130000000001
44,2.2015,0.0430708068,-0.1962114532,4.9818566531999995,0.014660520000000003,-0.00855197,-0.006108550000000001
44,2.2015,0.0334995164,-0.1770688724,4.9627140724,0.014660520000000003,-0.00855197,-0.003665130000000001
44,2.2015,0.0191425808,-0.2009970984,4.9914279436,0.014660520000000003,-0.007330260000000002,-0.004886840000000001
44,2.2015,0.028713871199999998,-0.1962114532,4.9914279436,0.013438810000000002,-0.00855197,-0.006108550000000001
44,2.2015,0.0095712904,-0.2201396792,4.9818566531999995,0.014660520000000003,-0.007330260000000002,-0.004886840000000001
44,2.2015,0.028713871199999998,-0.191425808,4.9962135888,0.013438810000000002,-0.007330260000000002,-0.004886840000000001
44,2.2015,0.0047856452,-0.1962114532,4.9914279436,0.014660520000000003,-0.007330260000000002,-0.003665130000000001
44,2.2015,0.0095712904,-0.1818545176,4.977071008,0.013438810000000002,-0.009773680000000002,-0.004886840000000001
44,2.2015,0.0047856452,-0.2009970984,4.9818566531999995,0.014660520000000003,-0.007330260000000002,-0.006108550000000001
44,2.2015,0.047856452,-0.1722832272,5.000999234,0.012217100000000002,-0.007330260000000002,-0.006108550000000001
44,2.2015,0.0430708068,-0.1866401628,4.9962135888,0.010995390000000002,-0.00855197,-0.004886840000000001
44,2.2015,0.0382851616,-0.1962114532,4.9914279436,0.012217100000000002,-0.007330260000000002,-0.003665130000000001
45,2.25,0.014356935599999999,-0.1818545176,5.0105705244,0.012217100000000002,-0.006108550000000001,-0.006108550000000001
45,2.25,0.023928226,-0.1962114532,4.9722853628,0.013438810000000002,-0.007330260000000002,-0.003665130000000001
45,2.25,0.0047856452,-0.20578274359999998,4.9962135888,0.013438810000000002,-0.006108550000000001,-0.004886840000000001
45,2.25,-0.0047856452,-0.1962114532,5.0153561695999995,0.014660520000000003,-0.007330260000000002,-0.004886840000000001
45,2.25,0.028713871199999998,-0.191425808,4.9962135888,0.013438810000000002,-0.007330260000000002,-0.004886840000000001
45,2.25,0.028713871199999998,-0.1818545176,5.0153561695999995,0.013438810000000002,-0.007330260000000002,-0.006108550000000001
45,2.25,0.0095712904,-0.1770688724,4.9914279436,0.012217100000000002,-0.00855197,-0.003665130000000001
45,2.25,0.028713871199999998,-0.1722832272,4.9914279436,0.014660520000000003,-0.00855197,-0.004886840000000001
45,2.25,0.0191425808,-0.1770688724,4.9962135888,0.013438810000000002,-0.007330260000000002,-0.006108550000000001
45,2.25,0.0191425808,-0.2009970984,4.9914279436,0.014660520000000003,-0.007330260000000002,-0.006108550000000001
45,2.25,0.0095712904,-0.2009970984,5.000999234,0.013438810000000002,-0.007330260000000002,-0.004886840000000001
45,2.25,-0.014356935599999999,-0.1866401628,4.9962135888,0.012217100000000002,-0.006108550000000001,-0.003665130000000001
45,2.25,0.0047856452,-0.1818545176,4.9962135888,0.013438810000000002,-0.006108550000000001,-0.004886840000000001
45,2.25,-0.0334995164,-0.2105683888,4.9866422984,0.012217100000000002,-0.007330260000000002,-0.004886840000000001
45,2.25,-0.0047856452,-0.191425808,5.0105705244,0.014660520000000003,-0.006108550000000001,-0.004886840000000001
45,2.25,0.0382851616,-0.1962114532,4.9866422984,0.013438810000000002,-0.006108550000000001,-0.003665130000000001
45,2.25,0.0,-0.191425808,4.9914279436,0.012217100000000002,-0.006108550000000001,-0.003665130000000001
45,2.25,-0.0047856452,-0.215354034,4.9818566531999995,0.013438810000000002,-0.007330260000000002,-0.006108550000000001
45,2.25,0.0191425808,-0.191425808,4.977071008,0.014660520000000003,-0.007330260000000002,-0.004886840000000001
45,2.25,0.014356935599999999,-0.20578274359999998,4.9914279436,0.013438810000000002,-0.00855197,-0.003665130000000001
46,2.302,0.014356935599999999,-0.20578274359999998,4.9866422984,0.013438810000000002,-0.007330260000000002,-0.003665130000000001
46,2.302,0.0191425808,-0.191425808,4.9962135888,0.013438810000000002,-0.007330260000000002,-0.003665130000000001
46,2.302,0.0334995164,-0.2009970984,5.0057848792,0.013438810000000002,-0.00855197,-0.006108550000000001
46,2.302,0.0,-0.2105683888,4.9962135888,0.012217100000000002,-0.007330260000000002,-0.006108550000000001
46,2.302,-0.014356935599999999,-0.20578274359999998,4.9962135888,0.012217100000000002,-0.007330260000000002,-0.004886840000000001
46,2.302,0.0095712904,-0.2009970984,5.0057848792,0.012217100000000002,-0.006108550000000001,-0.003665130000000001
46,2.302,0.014356935599999999,-0.20578274359999998,5.0153561695999995,0.013438810000000002,-0.007330260000000002,-0.006108550000000001
46,2.302,0.023928226,-0.1962114532,4.9962135888,0.014660520000000003,-0.007330260000000002,-0.004886840000000001
46,2.302,0.0430708068,-0.20578274359999998,5.0057848792,0.013438810000000002,-0.007330260000000002,-0.004886840000000001
46,2.302,0.028713871199999998,-0.20578274359999998,4.9962135888,0.012217100000000002,-0.00855197,-0.004886840000000001
46,2.302,-0.0047856452,-0.1962114532,5.0344987504,0.014660520000000003,-0.00855197,-0.004886840000000001
46,2.302,0.0,-0.191425808,5.0201418148,0.013438810000000002,-0.007330260000000002,-0.003665130000000001
46,2.302,0.0191425808,-0.2105683888,5.000999234,0.013438810000000002,-0.007330260000000002,-0.003665130000000001
46,2.302,0.0047856452,-0.20578274359999998,5.0344987504,0.013438810000000002,-0.006108550000000001,-0.006108550000000001
46,2.302,0.0095712904,-0.1962114532,4.9866422984,0.014660520000000003,-0.007330260000000002,-0.006108550000000001
46,2.302,0.0334995164,-0.1770688724,4.9914279436,0.013438810000000002,-0.007330260000000002,-0.004886840000000001
46,2.302,0.0334995164,-0.167497582,5.0201418148,0.013438810000000002,-0.00855197,-0.003665130000000001
46,2.302,0.0334995164,-0.2009970984,5.0153561695999995,0.013438810000000002,-0.007330260000000002,-0.004886840000000001
46,2.302,0.023928226,-0.20578274359999998,5.0057848792,0.014660520000000003,-0.007330260000000002,-0.004886840000000001
46,2.302,0.028713871199999998,-0.2105683888,4.9962135888,0.012217100000000002,-0.00855197,-0.003665130000000001
47,2.349,0.0,-0.1866401628,4.9866422984,0.013438810000000002,-0.007330260000000002,-0.004886840000000001
47,2.349,0.014356935599999999,-0.20578274359999998,4.9962135888,0.013438810000000002,-0.00855197,-0.003665130000000001
47,2.349,0.0191425808,-0.1770688724,4.9866422984,0.015882230000000004,-0.007330260000000002,-0.003665130000000001
47,2.349,0.0430708068,-0.1962114532,5.0105705244,0.013438810000000002,-0.007330260000000002,-0.004886840000000001
47,2.349,0.0334995164,-0.1866401628,5.0057848792,0.013438810000000002,-0.007330260000000002,-0.006108550000000001
47,2.349,0.0047856452,-0.191425808,5.0057848792,0.013438810000000002,-0.00855197,-0.004886840000000001
47,2.349,0.023928226,-0.2201396792,5.000999234,0.013438810000000002,-0.00855197,-0.004886840000000001
47,2.349,0.023928226,-0.191425808,4.9914279436,0.014660520000000003,-0.007330260000000002,-0.006108550000000001
47,2.349,0.028713871199999998,-0.215354034,4.9914279436,0.012217100000000002,-0.00855197,-0.003665130000000001
47,2.349,0.0191425808,-0.1962114532,5.0201418148,0.012217100000000002,-0.00855197,-0.0024434200000000004
47,2.349,0.0191425808,-0.20578274359999998,5.000999234,0.013438810000000002,-0.00855197,-0.004886840000000001
47,2.349,0.028713871199999998,-0.191425808,5.0057848792,0.013438810000000002,-0.006108550000000001,-0.004886840000000001
47,2.349,0.014356935599999999,-0.1962114532,4.977071008,0.012217100000000002,-0.007330260000000002,-0.006108550000000001
47,2.349,0.0,-0.1962114532,4.9914279436,0.013438810000000002,-0.009773680000000002,-0.004886840000000001
47,2.349,0.028713871199999998,-0.191425808,5.000999234,0.013438810000000002,-0.00855197,-0.003665130000000001
47,2.349,0.047856452,-0.2009970984,5.000999234,0.013438810000000002,-0.007330260000000002,-0.003665130000000001
47,2.349,0.014356935599999999,-0.1866401628,5.0153561695999995,0.013438810000000002,-0.007330260000000002,-0.003665130000000001
47,2.349,0.014356935599999999,-0.215354034,4.9866422984,0.013438810000000002,-0.007330260000000002,-0.0024434200000000004
47,2.349,0.0430708068,-0.2105683888,4.9722853628,0.012217100000000002,-0.007330260000000002,-0.003665130000000001
47,2.349,0.0191425808,-0.191425808,4.9962135888,0.012217100000000002,-0.007330260000000002,-0.006108550000000001
48,2.433,0.0334995164,-0.1962114532,4.9962135888,0.012217100000000002,-0.007330260000000002,-0.004886840000000001
48,2.433,0.014356935599999999,-0.1962114532,5.000999234,0.014660520000000003,-0.00855197,-0.006108550000000001
48,2.433,0.028713871199999998,-0.20578274359999998,5.0057848792,0.014660520000000003,-0.007330260000000002,-0.006108550000000001
48,2.433,0.0334995164,-0.2009970984,4.9866422984,0.013438810000000002,-0.007330260000000002,-0.006108550000000001
48,2.433,0.023928226,-0.1866401628,5.0201418148,0.014660520000000003,-0.00855197,-0.003665130000000001
48,2.433,0.0095712904,-0.1866401628,4.9722853628,0.012217100000000002,-0.007330260000000002,-0.004886840000000001
48,2.433,0.0191425808,-0.1962114532,4.9962135888,0.014660520000000003,-0.007330260000000002,-0.006108550000000001
48,2.433,0.0047856452,-0.1962114532,4.9914279436,0.012217100000000002,-0.007330260000000002,-0.003665130000000001
48,2.433,-0.0095712904,-0.191425808,5.000999234,0.013438810000000002,-0.007330260000000002,-0.003665130000000001
48,2.433,0.0334995164,-0.2105683888,5.000999234,0.012217100000000002,-0.007330260000000002,-0.004886840000000001
48,2.433,0.0095712904,-0.1962114532,5.0105705244,0.013438810000000002,-0.007330260000000002,-0.0024434200000000004
48,2.433,0.0334995164,-0.1818545176,5.0153561695999995,0.012217100000000002,-0.00855197,-0.004886840000000001
48,2.433,0.0047856452,-0.2105683888,4.9962135888,0.012217100000000002,-0.006108550000000001,-0.004886840000000001
48,2.433,0.0047856452,-0.1770688724,4.9914279436,0.014660520000000003,-0.007330260000000002,-0.006108550000000001
48,2.433,0.023928226,-0.1866401628,5.000999234,0.012217100000000002,-0.007330260000000002,-0.003665130000000001
48,2.433,0.028713871199999998,-0.1866401628,5.0057848792,0.013438810000000002,-0.00855197,-0.004886840000000001
48,2.433,0.014356935599999999,-0.20578274359999998,5.0105705244,0.014660520000000003,-0.007330260000000002,-0.004886840000000001
48,2.433,0.0095712904,-0.191425808,4.9962135888,0.013438810000000002,-0.007330260000000002,-0.006108550000000001
48,2.433,0.0095712904,-0.1818545176,5.0153561695999995,0.014660520000000003,-0.007330260000000002,-0.006108550000000001
48,2.433,0.014356935599999999,-0.1722832272,4.9914279436,0.012217100000000002,-0.00855197,-0.003665130000000001
49,2.4461,0.014356935599999999,-0.2009970984,4.9914279436,0.013438810000000002,-0.007330260000000002,-0.004886840000000001
49,2.4461,0.023928226,-0.1866401628,5.0105705244,0.014660520000000003,-0.007330260000000002,-0.004886840000000001
49,2.4461,0.023928226,-0.2009970984,5.0057848792,0.012217100000000002,-0.006108550000000001,-0.003665130000000001
49,2.4461,0.0,-0.2009970984,4.9818566531999995,0.013438810000000002,-0.00855197,-0.003665130000000001
49,2.4461,0.0382851616,-0.1962114532,5.0201418148,0.013438810000000002,-0.006108550000000001,-0.004886840000000001
49,2.4461,0.028713871199999998,-0.191425808,5.0201418148,0.013438810000000002,-0.007330260000000002,-0.003665130000000001
49,2.4461,0.0430708068,-0.2105683888,5.02492746,0.013438810000000002,-0.007330260000000002,-0.004886840000000001
49,2.4461,0.028713871199999998,-0.2105683888,5.0153561695999995,0.013438810000000002,-0.007330260000000002,-0.004886840000000001
49,2.4461,0.023928226,-0.215354034,5.0105705244,0.014660520000000003,-0.00855197,-0.004886840000000001
49,2.4461,0.047856452,-0.1866401628,5.0057848792,0.012217100000000002,-0.007330260000000002,-0.006108550000000001
49,2.4461,0.028713871199999998,-0.2201396792,4.9962135888,0.013438810000000002,-0.00855197,-0.003665130000000001
49,2.4461,0.0191425808,-0.191425808,5.02492746,0.012217100000000002,-0.006108550000000001,-0.003665130000000001
49,2.4461,0.014356935599999999,-0.1962114532,5.0057848792,0.012217100000000002,-0.007330260000000002,-0.0024434200000000004
49,2.4461,0.023928226,-0.20578274359999998,5.0105705244,0.013438810000000002,-0.007330260000000002,-0.004886840000000001
49,2.4461,0.0191425808,-0.191425808,5.0057848792,0.012217100000000002,-0.00855197,-0.004886840000000001
49,2.4461,0.0334995164,-0.1962114532,5.02492746,0.013438810000000002,-0.009773680000000002,-0.0024434200000000004
49,2.4461,0.028713871199999998,-0.215354034,4.9866422984,0.013438810000000002,-0.007330260000000002,-0.0024434200000000004
49,2.4461,0.028713871199999998,-0.191425808,4.9914279436,0.013438810000000002,-0.00855197,-0.004886840000000001
49,2.4461,0.0,-0.1818545176,4.977071008,0.013438810000000002,-0.007330260000000002,-0.006108550000000001
49,2.4461,0.028713871199999998,-0.1866401628,4.9866422984,0.012217100000000002,-0.007330260000000002,-0.006108550000000001
50,2.4948,0.0191425808,-0.20578274359999998,4.9962135888,0.012217100000000002,-0.007330260000000002,-0.003665130000000001
50,2.4948,0.0191425808,-0.191425808,4.9962135888,0.012217100000000002,-0.007330260000000002,-0.004886840000000001
50,2.4948,0.0095712904,-0.20578274359999998,5.0057848792,0.013438810000000002,-0.00855197,-0.004886840000000001
50,2.4948,-0.014356935599999999,-0.20578274359999998,4.9818566531999995,0.013438810000000002,-0.007330260000000002,-0.004886840000000001
50,2.4948,0.014356935599999999,-0.1866401628,4.9914279436,0.013438810000000002,-0.007330260000000002,-0.004886840000000001
50,2.4948,-0.014356935599999999,-0.2009970984,4.9962135888,0.012217100000000002,-0.007330260000000002,-0.003665130000000001
50,2.4948,0.0430708068,-0.2009970984,5.0153561695999995,0.012217100000000002,-0.007330260000000002,-0.003665130000000001
50,2.4948,0.023928226,-0.1962114532,4.9866422984,0.012217100000000002,-0.00855197,-0.004886840000000001
50,2.4948,0.0047856452,-0.20578274359999998,5.0057848792,0.013438810000000002,-0.007330260000000002,-0.004886840000000001
50,2.4948,0.0430708068,-0.1866401628,5.0201418148,0.013438810000000002,-0.007330260000000002,-0.006108550000000001
50,2.4948,0.014356935599999999,-0.167497582,5.0057848792,0.012217100000000002,-0.00855197,-0.004886840000000001
50,2.4948,0.0095712904,-0.2009970984,5.000999234,0.013438810000000002,-0.00855197,-0.006108550000000001
50,2.4948,0.023928226,-0.1962114532,5.0105705244,0.013438810000000002,-0.007330260000000002,-0.006108550000000001
50,2.4948,-0.0095712904,-0.20578274359999998,5.0153561695999995,0.013438810000000002,-0.007330260000000002,-0.004886840000000001
50,2.4948,0.0047856452,-0.2105683888,5.0057848792,0.012217100000000002,-0.00855197,-0.004886840000000001
50,2.4948,0.023928226,-0.215354034,5.0201418148,0.012217100000000002,-0.00855197,-0.004886840000000001
50,2.4948,-0.0095712904,-0.191425808,5.0201418148,0.013438810000000002,-0.007330260000000002,-0.004886840000000001
50,2.4948,0.023928226,-0.2105683888,4.9962135888,0.013438810000000002,-0.00855197,-0.006108550000000001
50,2.4948,0.0191425808,-0.1962114532,5.000999234,0.013438810000000002,-0.00855197,-0.006108550000000001
50,2.4948,0.028713871199999998,-0.167497582,4.9914279436,0.012217100000000002,-0.00855197,-0.004886840000000001
51,2.5446,0.023928226,-0.1722832272,5.0201418148,0.012217100000000002,-0.007330260000000002,-0.006108550000000001
51,2.5446,0.023928226,-0.1722832272,4.977071008,0.013438810000000002,-0.00855197,-0.004886840000000001
51,2.5446,0.0334995164,-0.1818545176,4.9818566531999995,0.013438810000000002,-0.007330260000000002,-0.004886840000000001
51,2.5446,0.028713871199999998,-0.1962114532,4.9866422984,0.012217100000000002,-0.007330260000000002,-0.003665130000000001
51,2.5446,0.0,-0.2105683888,5.0153561695999995,0.014660520000000003,-0.007330260000000002,-0.003665130000000001
51,2.5446,0.047856452,-0.1818545176,5.0105705244,0.013438810000000002,-0.007330260000000002,-0.004886840000000001
51,2.5446,0.023928226,-0.1818545176,4.9914279436,0.014660520000000003,-0.007330260000000002,-0.006108550000000001
51,2.5446,0.0334995164,-0.167497582,5.0153561695999995,0.012217100000000002,-0.006108550000000001,-0.004886840000000001
51,2.5446,0.0095712904,-0.191425808,5.0057848792,0.012217100000000002,-0.007330260000000002,-0.004886840000000001
51,2.5446,0.0095712904,-0.191425808,5.0153561695999995,0.013438810000000002,-0.007330260000000002,-0.004886840000000001
51,2.5446,0.0334995164,-0.1962114532,4.9962135888,0.013438810000000002,-0.00855197,-0.004886840000000001
51,2.5446,0.0191425808,-0.1818545176,5.0105705244,0.014660520000000003,-0.007330260000000002,-0.004886840000000001
51,2.5446,0.0382851616,-0.1866401628,4.9962135888,0.013438810000000002,-0.007330260000000002,-0.003665130000000001
51,2.5446,0.014356935599999999,-0.20578274359999998,4.977071008,0.012217100000000002,-0.00855197,-0.004886840000000001
51,2.5446,0.0191425808,-0.2009970984,4.977071008,0.012217100000000002,-0.00855197,-0.003665130000000001
51,2.5446,0.023928226,-0.1866401628,4.9818566531999995,0.014660520000000003,-0.00855197,-0.003665130000000001
51,2.5446,0.023928226,-0.215354034,5.0153561695999995,0.014660520000000003,-0.00855197,-0.004886840000000001
51,2.5446,0.023928226,-0.1722832272,5.000999234,0.013438810000000002,-0.00855197,-0.003665130000000001
51,2.5446,0.0191425808,-0.191425808,5.0057848792,0.012217100000000002,-0.00855197,-0.003665130000000001
51,2.5446,0.0430708068,-0.1818545176,5.0105705244,0.012217100000000002,-0.007330260000000002,-0.003665130000000001
52,2.5932,0.0334995164,-0.20578274359999998,5.0153561695999995,0.014660520000000003,-0.007330260000000002,-0.006108550000000001
52,2.5932,0.0334995164,-0.191425808,4.9818566531999995,0.014660520000000003,-0.00855197,-0.006108550000000001
52,2.5932,0.0191425808,-0.1818545176,4.9818566531999995,0.013438810000000002,-0.00855197,-0.003665130000000001
