Packet_ID,Rx_Time_Sec,Acc_X,Acc_Y,Acc_Z,Gyro_X,Gyro_Y,Gyro_Z
0,0.0535,5.685346497599999,8.61416136,-1.1772687192,0.06352892000000002,3.3279380400000007,-2.0158215000000004
0,0.0535,39.6155709656,8.97308475,11.4664058992,0.08429799000000002,2.4556371000000006,-1.4941513300000002
0,0.0535,13.4333060764,8.087740388,4.1012979364,0.30054066000000007,-1.1911672500000001,-0.8649706800000001
0,0.0535,-7.9106715156,-10.1790673404,6.0634124684,0.33352683000000005,-1.3402158700000002,-1.0506706000000001
0,0.0535,-25.2873492368,6.317051664,-5.1972106872,-0.05619866000000001,0.19913873000000004,-1.4733822600000002
0,0.0535,12.5096765528,-0.5024927459999999,-12.7920296196,-0.13560981000000003,3.0933697200000005,-1.9156412800000002
0,0.0535,60.5671256512,14.4861480204,4.1108692268,-0.08307628000000002,3.7127766900000005,-2.0451425400000005
0,0.0535,32.748170103599996,14.964712540399999,12.9260276852,0.09040654000000002,-0.6450628800000001,-1.4355092500000002
0,0.0535,-8.9060857172,21.2386933976,1.79461695,-0.08918483000000002,-3.0921480100000007,-1.2473659100000003
0,0.0535,-30.7429847648,28.1060942596,-1.8137595307999999,-0.24067687000000004,-1.4550566100000002,-0.5766471200000001
0,0.0535,-31.6618286432,4.522434714,-6.34097989,-0.20280386000000003,-0.04153814000000001,-0.4923491300000001
0,0.0535,27.8237411928,-9.6095755616,-4.8765724588,-0.037873010000000006,4.318744850000001,-1.3023428600000002
0,0.0535,107.0118123172,1.244267752,17.5776748196,-0.17470453000000002,5.173941850000001,-1.4355092500000002
0,0.0535,55.0014202836,-13.6247318844,17.9605264356,0.16859598000000003,-3.4745432400000005,-0.9443818300000002
0,0.0535,-25.2969205272,12.8542430072,-9.882357338,-0.07818944000000001,-5.795792240000001,-0.29565382000000007
0,0.0535,-80.2600556492,12.2225378408,-10.6863457316,0.32863999000000005,-2.0671333200000004,0.4947925500000001
0,0.0535,-37.8448822416,18.78365741,-3.2925238975999997,0.35551761000000004,4.2356685700000005,1.3194468000000001
0,0.0535,57.5043127232,15.6299172232,15.160923993599999,0.5778688300000001,7.120125880000002,1.9730616500000002
0,0.0535,81.7531769516,20.319849519199998,14.907284798,0.10628877000000002,2.4336463200000003,2.1941911600000004
0,0.0535,3.8715869668,3.9864424516,-9.2889373332,0.34207880000000007,-2.8233718100000003,2.08668068
1,0.1037,-30.7429847648,6.4510497296,1.962114532,0.14660520000000002,-2.0390339900000005,1.3512112600000001
1,0.1037,-20.1619232276,2.7804598611999998,7.154539574,0.25778081,0.24434200000000003,0.7574602000000001
1,0.1037,7.8149586116,-3.6035908356,-0.7274180704,-0.05009011000000001,0.38972549000000006,0.46302809000000006
1,0.1037,4.9244289108,5.0105705244,-12.179467034,-0.22479464000000005,-0.9236127600000001,1.3035645700000003
1,0.1037,-19.3627204792,8.0255270004,3.3403803495999997,0.36529129000000005,-2.0390339900000005,2.0830155500000003
1,0.1037,-48.8710087824,3.9816568063999997,-0.741775006,0.3885037800000001,-1.2803520800000001,2.6083508500000003
1,0.1037,-16.7401869096,16.4578338428,8.327022648,0.16981769000000002,0.31153605000000006,1.9083110200000004
1,0.1037,16.6923304576,20.506489681999998,10.04985492,-0.04031643000000001,0.24800713000000005,1.7507104300000003
1,0.1037,28.5080884564,12.6771741348,-11.7535446112,0.17959137000000003,-2.7329652700000007,0.8380930600000002
1,0.1037,0.9427721044,29.795427015199998,-0.6412764568,-0.21257754000000004,-3.2546354400000004,0.3310834100000001
1,0.1037,-36.7824690072,-22.7988137328,13.0121692988,-0.16981769000000002,-3.7213286600000006,0.08429799000000002
1,0.1037,-50.9958352512,2.9288148624,-12.6436746184,-0.5644300200000001,-1.9290800900000002,0.33474854000000004
1,0.1037,-50.2492746,-8.2504523248,1.7802600144,-0.16981769000000002,-0.2846584300000001,0.9052871100000002
1,0.1037,-40.247276131999996,4.833501652,-8.4035929712,-0.04398156000000001,1.8789899800000003,0.8759660700000002
1,0.1037,31.1019081548,3.2111679291999997,-5.000999234,0.04520327000000001,5.046884010000001,-0.07085918000000001
1,0.1037,73.36872656119999,21.391834044,22.2628214704,-0.021990780000000005,1.8582209100000002,-0.57909054
1,0.1037,-6.6472611827999994,17.6973159496,-3.4839497055999997,0.19180847000000004,-4.2356685700000005,-0.9248344700000002
1,0.1037,-99.1011408016,15.8069860956,-14.71585899,0.020769070000000004,-3.7873010000000007,-1.5063684300000002
1,0.1037,-35.6674136756,9.0783689444,3.7758740628,-0.14049665000000003,3.0115151500000006,-2.1233319800000006
1,0.1037,38.8546533788,8.3461652288,6.3457655352,-0.0024434200000000004,4.681592720000001,-1.8802116900000003
2,0.1535,30.2644202448,7.7575308692,6.2069818244,0.20524728000000003,0.6585016900000001,-1.08121335
2,0.1535,-1.7850456596,-2.9336005076,6.0729837587999995,0.37628668000000004,-1.0653311200000002,-0.9004002700000001
2,0.1535,-20.5017040368,3.7710884176,-5.6374900456,-0.03176446000000001,0.4447024400000001,-1.2168231600000001
2,0.1535,3.4552358344,-1.6845471104,2.7326034091999998,0.11728416000000003,2.5436002200000005,-1.9901655900000004
2,0.1535,46.765324894399996,9.499505722,-7.992027483999999,-0.20158215000000004,3.6981161700000005,-2.31025361
2,0.1535,52.359744133199996,16.1467669048,15.91227029,0.24678542000000003,0.00855197,-2.1184451400000004
2,0.1535,1.9477575964,21.4827613028,2.7708885708,0.18203479000000003,-3.9033634500000005,-1.6370914000000003
2,0.1535,-15.5677038356,24.0813666464,-3.1441688964,0.11850587000000001,-3.2179841400000004,-1.7739229200000002
2,0.1535,-35.1840635104,31.4369033188,-3.5270205124,0.06841576,-0.9834765500000001,-0.4947925500000001
2,0.1535,0.0334995164,-13.208380752,7.5086773188,0.35307419000000007,0.7281391600000001,-0.8698575200000002
2,0.1535,58.8299364436,-3.2877382524,0.5934200048,0.4129379800000001,2.9455428100000005,-1.2950126000000002
2,0.1535,82.0929577608,-16.6684022316,7.8867432896,0.024434200000000003,0.7660121700000001,-1.2168231600000001
2,0.1535,28.0103813556,8.0111700648,4.3597227772,0.05497695000000001,-3.9632272400000006,-0.6230721000000001
2,0.1535,-42.9128805084,0.7848458128,-4.8526442327999995,0.40560772000000006,-4.322409980000001,0.58886422
2,0.1535,-71.9330330012,31.149764606799998,-8.8821574912,0.25167226000000004,-1.6212091700000002,0.8527535800000001
2,0.1535,-7.0396840892,18.807585636,0.7130611348,0.5961944800000001,4.97358141,1.5650105100000002
2,0.1535,71.30611348,29.484360077199998,7.274180704,0.5326655600000001,6.650989240000001,2.1269971100000005
2,0.1535,52.1922465512,1.363908882,-1.9669001771999999,0.57298199,1.3597632300000002,2.3579003000000003
2,0.1535,-2.967100024,7.1688965096,10.7150596028,0.42026824000000007,-2.7134179100000004,1.7446018800000003
2,0.1535,-18.1663091792,5.2833523008,16.6014031988,0.6120767100000001,-3.2277578200000003,1.10686926
3,0.1985,-2.919243572,-13.4572343024,-16.0414827104,0.11239732000000002,-2.8099330000000005,0.9138390800000001
3,0.1985,-34.145578502,11.653046062,-18.4151627296,-0.41782482000000004,-1.8569992000000004,1.2742435300000001
3,0.1985,-34.5858578604,6.4893348911999995,9.7435736272,0.3885037800000001,0.9553772200000001,1.6639690200000004
3,0.1985,-2.2444675988,7.5996045776,-5.5369914964,0.31397947000000004,0.9248344700000002,1.9425189000000003
3,0.1985,7.3411797368,17.3575351404,14.4909336656,0.04398156000000001,-1.7103940000000002,1.8423386800000003
3,0.1985,-17.7930288536,26.8522552172,-1.55533469,-0.010995390000000002,-2.5423785100000003,1.5393546000000002
3,0.1985,-6.6616181184,11.7679015468,-20.0901385496,0.4190465300000001,-0.9932502300000001,0.8796312000000002
3,0.1985,34.4422885044,23.2199505104,10.5858471824,0.12094929000000001,0.11484074000000002,-0.018325650000000002
3,0.1985,-26.632115538,-17.6542451428,18.951154992,0.23701174000000003,-2.6340067600000006,1.02990153
3,0.1985,-100.0056277444,8.1547394208,-29.2307208816,-0.14049665000000003,-4.400599420000001,1.2241534200000002
3,0.1985,-59.787065483599996,-10.719845248,-9.4947200768,-0.05497695000000001,2.1526530200000003,1.3133382500000002
3,0.1985,14.644074311999999,-0.8566304908,2.0961125976,-0.14782691000000003,5.452491730000001,0.3823952300000001
3,0.1985,65.3049143992,7.274180704,3.9146577736,-0.18814334000000002,3.6211484400000007,-0.48868400000000006
3,0.1985,26.536402633999998,12.9643128468,18.1088814368,-0.028099330000000006,-1.2852389200000003,-0.9565989300000002
3,0.1985,-40.0654216144,26.2923347288,-3.9146577736,-0.23945516000000003,-4.098837050000001,-1.8496689400000004
3,0.1985,-64.773707782,14.9742838308,-10.217352502,0.025655910000000004,-1.8582209100000002,-2.3175838700000004
3,0.1985,-17.060825138,16.3716922292,-3.2494530908,-0.048868400000000006,1.5442414400000002,-2.4263160600000004
3,0.1985,27.15853651,4.5798624564,5.7571311756,0.30787092000000005,3.3389334300000004,-1.7213893900000004
3,0.1985,24.023938903999998,6.6137616664,6.6664037636,0.28954527,1.6224308800000002,-1.1056475500000003
3,0.1985,3.2111679291999997,-4.7904308451999995,7.350751027199999,0.19791702000000003,-0.6963747000000001,-1.0091324600000002
4,0.2479,-10.9016997656,-0.143569356,-0.4163511324,0.06230721000000001,-0.4605846700000001,-1.4733822600000002
4,0.2479,8.169096356399999,3.7040893848,-15.414563189199999,-0.19303018000000002,2.2222904900000002,-2.0707984500000003
4,0.2479,47.8947371616,13.5864467228,2.8187450228,-0.13560981000000003,3.553954390000001,-2.4458634200000002
4,0.2479,33.2075920428,19.3052927368,17.491533206,-0.021990780000000005,-0.24800713000000005,-1.8276781600000003
4,0.2479,-9.403792818,26.857040862399998,4.450650036,-0.22112951000000003,-2.1966345800000004,-1.6700775700000003
4,0.2479,-39.6299279012,32.4036036492,-10.6384892796,-0.40072088000000006,-0.8185457000000002,-0.8258759600000002
4,0.2479,-15.342778511199999,0.8087740388,-0.167497582,-0.4129379800000001,0.8906265900000001,-1.3011211500000002
4,0.2479,60.945191621999996,-12.1172536464,1.9525432416,0.004886840000000001,6.423751180000001,-1.3609849400000003
4,0.2479,104.22178116559999,-7.350751027199999,26.5459739244,-0.08796312000000002,2.5533739000000004,-1.4465046400000003
4,0.2479,23.4640184156,-3.4743784152,17.9988115972,0.24189858000000003,-5.279008910000001,-0.34940906000000005
4,0.2479,-45.6024131108,12.0023981616,-16.5152615852,0.23456832000000005,-4.79276833,0.42148995000000006
4,0.2479,-78.3027267624,22.3872482456,-18.448662246,0.4349287600000001,-0.4129379800000001,1.15818108
4,0.2479,-6.1064832752,17.060825138,9.1214397512,0.6633885300000001,5.753032390000001,1.8728814300000003
4,0.2479,90.6688339592,25.5984161748,16.3334070676,0.3567393200000001,5.878868520000001,1.9974958500000004
4,0.2479,63.9697193884,6.747759732,11.8731857412,0.19669531000000004,-0.32741828000000006,2.2051865500000005
4,0.2479,-24.7226431032,9.1214397512,-4.2927237444,0.08307628000000002,-4.26743303,1.7934702800000002
4,0.2479,-35.3946318992,6.4701923104,-3.8907295476,0.33719196000000007,-1.9315235100000003,0.8979568500000001
4,0.2479,-4.6372901988,-2.9718856691999997,4.0103706776,0.3103143400000001,0.4752451900000001,0.5815339600000001
4,0.2479,-4.5894337468,1.9525432416,-6.7142602155999995,-0.2687762,-0.42759850000000005,1.0335666600000002
4,0.2479,1.0432706536,9.0640120088,4.9100719752,0.30664921000000006,-1.4208487300000003,1.9070893100000004
5,0.3114,-29.7714987892,4.4410787456,-5.8193445632,0.6120767100000001,-1.8899853700000002,2.6144594000000003
5,0.3114,-42.668812603199996,13.471591238,-0.2009970984,0.4947925500000001,-1.13252517,2.3456832000000003
5,0.3114,3.302095188,20.147566292,18.013168532799998,0.18936505000000003,0.9004002700000001,1.8875419500000004
5,0.3114,34.724641571199996,16.4051917456,0.143569356,0.21135583000000002,-1.6945117700000003,1.1080909700000001
5,0.3114,13.7300160788,22.9615256696,-17.0464682024,0.037873010000000006,-3.861825310000001,0.34207880000000007
5,0.3114,-20.8079853296,-10.8299150876,14.8642139912,-0.29443211,-3.3340465900000007,0.5778688300000001
5,0.3114,-67.1282452204,-0.0526420972,-16.4530481976,-0.32253144000000006,-3.8764858300000005,0.5204484600000001
5,0.3114,-66.6305381196,-8.662017812,1.2299108163999999,-0.12339271000000002,-0.8979568500000001,0.8283193800000002
5,0.3114,-28.5990157152,11.270194446,1.2394821068,-0.26022423000000006,3.0029631800000005,0.7745641400000002
5,0.3114,34.8969247984,-2.4215364712,-6.2739808572,0.22479464000000005,4.027977870000001,-0.09773680000000001
5,0.3114,62.787665024,22.9280261532,7.9106715156,0.13194468,1.4636085800000003,-0.55343463
5,0.3114,-1.5696916256,13.51944769,5.0679982668,0.28588014000000006,-3.9216891000000005,-1.2766869500000002
5,0.3114,-87.5007368368,17.8552422412,-8.0494552264,0.12461442000000002,-3.7970746800000006,-1.7641492400000003
5,0.3114,-47.1960329624,7.0540410248,-5.0632126216,-0.10018022000000001,2.00849124,-2.10500633
5,0.3114,30.384061374799998,10.2556376636,5.3216374624,0.010995390000000002,4.23444686,-1.7702577900000003
5,0.3114,25.1533511712,12.370892842,-0.574277424,0.32130973000000007,0.5693168600000001,-1.1875021200000002
5,0.3114,-4.3740797127999995,-5.6135618196,5.7188460139999995,0.4850188700000001,0.24922884000000003,-0.8710792300000001
5,0.3114,1.4739787216,1.7276179172,1.4979069476,-0.23823345000000004,2.1269971100000005,-1.12641662
5,0.3114,6.1304115012,4.4362931003999995,7.8341011923999995,-0.036651300000000005,0.8112154400000001,-1.7531538500000003
5,0.3114,8.805587168,-0.8470592003999999,-18.9367980564,-0.05742037000000001,1.4147401800000001,-2.1941911600000004
6,0.3428,43.4967292228,13.1270247836,6.46062102,-0.19303018000000002,2.4287594800000005,-2.4788495900000003
6,0.3428,24.870998104399998,20.195422744,13.873585434799999,-0.006108550000000001,-0.57909054,-1.8753248500000004
6,0.3428,8.662017812,21.4588330768,-5.0679982668,0.05864208000000001,-3.2192058500000007,-1.9119761500000003
6,0.3428,-20.0374964524,30.7860555716,0.526420972,0.21013412000000004,-3.7518714100000006,-1.0531140200000002
6,0.3428,-50.2540602452,0.3445664544,7.3316084464,0.4141596900000001,-2.1587615700000002,-0.37017813000000005
6,0.3428,27.4408895768,-15.984054967999999,-7.7431739336,0.6352892000000001,3.0225105400000003,-1.1361903000000002
6,0.3428,80.38926806959999,1.2538390423999999,7.3651079628,0.25655910000000004,4.04996865,-1.0384535000000001
6,0.3428,49.9477789524,-2.0099709839999997,-0.9475577495999999,0.26022423000000006,-2.7195264600000004,-1.0909870300000002
6,0.3428,15.9314128708,10.0785687912,-2.8666014748,0.23456832000000005,-3.4696564000000008,-0.36895642000000006
6,0.3428,-73.1294443012,6.4797636008,1.7180466267999999,0.34940906000000005,-2.6523324100000005,0.6975964100000002
6,0.3428,-48.93322217,20.0087825812,3.9768711612,0.24067687000000004,2.3566785900000005,0.9517120900000001
6,0.3428,48.885365717999996,12.3565359064,-13.0839539768,0.5424392400000001,6.404203820000001,1.5295809200000003
6,0.3428,62.012390501599995,30.364918793999998,11.0356978312,0.4874622900000001,3.5783885900000008,2.1636484100000004
6,0.3428,14.127224630399999,-3.637090352,6.4797636008,0.9211693400000002,-0.36895642000000006,2.3065884800000003
6,0.3428,9.4468636248,3.7471601916,13.2227376876,0.47402348000000005,-2.4458634200000002,1.4074099200000003
6,0.3428,-16.5296185208,7.1976103808,-2.2061824372,0.22968148000000005,-3.2155407200000004,0.9688160300000002
6,0.3428,-19.4488620928,-2.4454646972,-8.2648092604,0.26999791000000006,-2.2748240200000005,0.8881831700000001
6,0.3428,-11.341979124,-0.38763726119999997,-11.4041925116,0.22357293000000003,-0.25778081,1.0531140200000002
6,0.3428,-0.3302095188,8.5806618436,3.637090352,-0.024434200000000003,1.4025230800000001,1.1239732000000002
6,0.3428,0.9619146852,3.2207392196,17.6686020784,0.35063077000000004,0.6340674900000001,1.7934702800000002
7,0.3913,-10.7389878288,-1.8855442088,-8.0350982908,0.13927494,-1.8215696100000003,2.5839166500000004
7,0.3913,-21.2386933976,18.0562393396,-16.5248328756,0.10140193000000002,-2.3627871400000005,2.4360897400000003
7,0.3913,-37.56731482,4.0151563228,1.986042758,0.4459241500000001,-0.27732817000000004,2.5289397000000005
7,0.3913,11.0979112188,10.8203437972,3.8524443859999997,0.07696773000000001,1.4428395100000002,1.6151006200000002
7,0.3913,59.46164161,12.911670749599999,8.872586200799999,-0.09162825000000001,0.03298617,0.8173239900000001
7,0.3913,-27.3308197372,14.6249317312,11.629117835999999,-0.21379925000000002,-5.177606980000001,0.4874622900000001
7,0.3913,-34.1503641472,-6.5850477951999995,-30.7812699264,-0.11728416000000003,-2.2088516800000004,-0.23823345000000004
7,0.3913,7.6091758679999995,8.1212399044,7.5948189324,-0.19303018000000002,1.5198072400000002,0.27732817000000004
7,0.3913,-62.3473856656,-14.132010275599999,19.1569377356,0.34330051000000006,-2.4483068400000003,1.3243336400000003
7,0.3913,-66.2524721488,-12.078968484799999,-20.319849519199998,0.05375524000000001,-0.23456832000000005,0.8417581900000002
7,0.3913,27.7902416764,15.476776576799999,-11.696116868799999,-0.26755449000000003,6.340674900000001,0.44714586000000006
7,0.3913,56.6285396516,10.265208954,13.5003051092,0.07941115000000001,2.4324246100000004,-0.035429590000000004
7,0.3913,9.2506521716,12.7681013936,5.8480584343999995,0.4031643000000001,-1.9474057400000002,-0.35796103000000007
7,0.3913,-48.6412978128,7.585247642,13.0695970412,0.039094720000000006,-3.1801111300000007,-1.0714396700000002
7,0.3913,-58.4279422468,12.016755097199999,-7.0061845728,-0.3103143400000001,-1.4953730400000003,-1.9400754800000004
7,0.3913,15.342778511199999,11.60518961,-14.1511528564,0.046424980000000005,2.5277179900000006,-2.0182649200000005
7,0.3913,25.6654152076,6.915257314,1.8376877567999998,0.29931895000000003,0.8967351400000001,-1.4684954200000002
7,0.3913,0.6604190376,2.225325018,16.2185515828,0.26633278000000005,-1.9828353300000003,-1.4013013700000003
7,0.3913,-12.346964616,2.344966148,5.5657053676,-0.07574602000000001,-1.0983172900000002,-1.4953730400000003
7,0.3913,-12.404392358399999,6.628118602,-3.9338003543999998,0.10140193000000002,0.61452013,-1.3035645700000003
8,0.4397,1.1294122672,-3.3547372852,-7.3268228012,0.45814125000000006,0.8063286000000002,-1.0628877
8,0.4397,-1.3495519463999999,-0.2201396792,-2.0099709839999997,0.33841367000000006,0.3726215500000001,-0.9065088200000001
8,0.4397,-9.6813602396,2.6943182476,-6.364908116,-0.11361903000000002,1.7482670100000002,-1.1215297800000001
8,0.4397,11.0883399284,7.010970218,17.898313048,0.23701174000000003,3.8178437500000006,-1.0873219000000003
8,0.4397,31.8915396128,-3.4265219632,5.0871408476,0.36040445000000004,2.1734220900000003,-1.3573198100000001
8,0.4397,14.897713507599999,1.268195978,1.9094724348,0.3677347100000001,-1.7568189800000003,-1.9278583800000004
8,0.4397,-14.0506543072,-1.2777672683999999,-3.6610185779999997,0.27366304,-1.1545159500000002,-2.46418907
8,0.4397,15.093924960799999,10.935199282,-3.8045879339999997,0.19058676000000002,2.1001194900000004,-2.5277179900000006
8,0.4397,28.5511592632,5.8815579507999995,11.9928268712,0.5546563400000001,-0.32986170000000004,-2.2955930900000006
8,0.4397,-22.2388932444,10.801201216399999,0.909272588,0.26144594000000004,-3.9143588400000007,-2.1355490800000005
8,0.4397,-27.6658149012,9.5330052384,-7.5900332872,-0.026877620000000005,-0.14538349000000003,-1.5662322200000003
8,0.4397,25.8520553704,13.2514515588,3.972085516,0.08063286000000001,2.4739627500000005,-1.0518923100000002
8,0.4397,30.2069925024,18.4343053104,7.7718878047999995,0.12339271000000002,-0.15271375000000004,-0.6694970800000001
8,0.4397,-5.1541398804,-13.5146620448,-2.9718856691999997,0.26388936,-1.6993986100000003,-1.0286798200000002
8,0.4397,25.3304200436,-2.7230321188,7.8676007087999995,-0.14538349000000003,0.9810331300000001,-1.2327053900000002
8,0.4397,45.94219392,-7.441678286,-3.7471601916,0.23945516000000003,0.10140193000000002,-1.1435205600000002
8,0.4397,1.8807585636,8.8247297488,-1.9429719511999999,0.25778081,-1.5760059000000002,-0.4593629600000001
8,0.4397,-22.468604214,13.304093656,4.7042892316,0.4447024400000001,-1.8105742200000003,-0.10384535000000002
8,0.4397,-9.901499918799999,13.950155758,-7.9393853868,0.35918274000000006,-0.23823345000000004,0.4141596900000001
8,0.4397,20.530417908,3.038884702,4.139583098,0.29321040000000004,1.6065486500000004,1.0482271800000003
9,0.4878,26.8857547336,14.2803652768,1.411765334,0.24434200000000003,1.09465216,1.3805323000000003
9,0.4878,14.8881422172,6.9774707016,0.454636294,0.4190465300000001,-0.10384535000000002,1.5124769800000002
9,0.4878,3.9290147092,8.7050886188,6.5754765048,0.21135583000000002,-0.9737028700000001,1.1410771400000002
9,0.4878,-10.8682002492,9.7483592724,1.9716858224,0.24067687000000004,-1.1300817500000002,0.9822548400000002
9,0.4878,-1.7276179172,4.402793584,-9.3128655592,0.20402557000000004,0.34207880000000007,0.8588621300000001
9,0.4878,13.1222391384,1.6606188844,2.8139593776,0.29198869000000005,0.4899057100000001,0.8906265900000001
9,0.4878,0.622133876,0.9044869428,0.5216353268,0.27977159000000007,-0.8942917200000001,0.8625272600000001
9,0.4878,-4.5750768112,-0.2679961312,-5.3503513336,0.16126572000000003,-0.7562384900000001,0.8405364800000001
9,0.4878,0.2823530668,6.3122660188,3.6562329328,0.035429590000000004,-0.2846584300000001,0.8906265900000001
9,0.4878,-10.8682002492,0.5934200048,-1.1054840412,0.34207880000000007,0.004886840000000001,0.8918483000000001
9,0.4878,-7.704888771999999,0.7513462964,-6.8434726359999996,0.09895851000000001,1.2852389200000003,1.0861001900000002
9,0.4878,12.5527473596,4.1922251952,13.112667848,0.11972758000000001,0.37384326000000007,1.4843776500000003
9,0.4878,-5.0105705244,-1.1964113,-6.7142602155999995,0.15271375000000004,-2.19541287,2.0500293800000002
9,0.4878,-38.912081121199996,-1.507478238,-9.901499918799999,0.15027033000000004,-1.7103940000000002,2.3872213400000004
9,0.4878,-16.8598280396,5.2019963324,7.2215386068,-0.10262364000000002,1.4941513300000002,2.5167226000000005
9,0.4878,25.636701336399998,1.6558332392,9.475577496,-0.12950126000000003,0.8063286000000002,2.3664522700000004
9,0.4878,14.7254302804,4.6851466508,-2.6847469572,-0.22968148000000005,-2.7549560500000005,2.2161819400000002
9,0.4878,-16.582260618,8.1643107112,-5.072783912,-0.5424392400000001,-2.6743231900000004,2.1477661800000005
9,0.4878,-30.14956476,13.734801724,-12.9020994592,-0.3885037800000001,-0.6866010200000001,1.9058676000000003
9,0.4878,-3.8859439023999998,21.4253335604,7.9298140963999995,-0.34940906000000005,0.32008802000000003,1.4465046400000003
10,0.5356,-34.351361245599996,-11.179267187199999,12.916456394799999,0.11850587000000001,-1.3951928200000003,1.3841974300000002
10,0.5356,-15.5533469,3.5892339,-14.9838551212,-0.35551761000000004,1.4049665000000002,0.5497695000000001
10,0.5356,35.2749907692,-7.8915289348,4.3022950348,0.21624267000000003,4.886840000000001,0.5070096500000001
10,0.5356,-2.8666014748,5.6135618196,-1.459621786,0.23456832000000005,-0.8099937300000001,0.43126363000000006
10,0.5356,-48.239303616,0.9762716208,-2.4454646972,0.18081308000000004,-3.3364900100000003,0.18936505000000003
10,0.5356,-28.0821660336,12.8159578456,2.225325018,-0.3469656400000001,0.6988181200000001,-0.05131182000000001
10,0.5356,-1.7898313047999999,13.299308010799999,-0.8901300072,-0.3054275000000001,2.2100733900000002,-0.16493085000000002
10,0.5356,9.3176512044,6.5276200528,-3.8859439023999998,0.013438810000000002,2.2259556200000006,0.04520327000000001
10,0.5356,9.475577496,14.830714474799999,13.1557386548,-0.1343881,-0.4031643000000001,-0.18936505000000003
10,0.5356,-16.1467669048,9.1214397512,8.5806618436,0.12583613000000002,-2.6535541200000003,-0.42026824000000007
10,0.5356,-25.5409884324,10.5236337948,-6.3122660188,-0.009773680000000002,-0.9859199700000002,-0.6475063000000001
10,0.5356,-9.5665047548,7.9489566772,-4.9244289108,0.09651509000000001,1.8203479000000002,-0.8099937300000001
10,0.5356,7.8771719992,5.7954163372,-0.3445664544,0.25900252000000007,2.5680344200000005,-0.9834765500000001
10,0.5356,8.9300139432,4.1682969692,8.8630149104,0.4043860100000001,1.3047862800000003,-0.9883633900000002
10,0.5356,-10.8203437972,-3.6275190615999997,4.9340002012,0.4129379800000001,0.6291806500000001,-0.6756056300000001
10,0.5356,0.9475577495999999,2.0961125976,-8.73380249,-0.08429799000000002,1.3768671700000001,-0.6426194600000001
10,0.5356,14.9886407664,5.0679982668,8.9778703952,0.19303018000000002,0.20280386000000003,-0.6365109100000002
10,0.5356,-12.9978123632,-5.6614182716,4.7330031028,0.8234325400000001,-1.6322045600000004,-0.9761462900000002
10,0.5356,-9.0592263636,0.1770688724,-15.792629159999999,-0.07818944000000001,1.9840570400000004,-1.5173638200000001
10,0.5356,50.177489922,3.4600214796,23.2917351884,0.20769070000000003,3.5392938700000007,-1.9584011300000004
11,0.5834,40.4004167784,8.1020973236,3.4025937372,0.4349287600000001,-1.9791702000000004,-2.1502096
11,0.5834,-24.9379971372,-0.7274180704,-12.5479617144,0.5839773800000001,-5.067653080000001,-2.2088516800000004
11,0.5834,-14.5627183436,15.457633996,5.359922624,-0.09895851000000001,-1.3426592900000003,-2.3334661000000003
11,0.5834,12.251251712,15.2997077044,5.1541398804,0.19058676000000002,0.40682943000000005,-1.9009807600000004
11,0.5834,9.595218626,16.965112234,-11.2510518652,0.3567393200000001,-0.8710792300000001,-1.6273177200000002
11,0.5834,8.1308111948,19.8173567732,13.237094623199999,-0.010995390000000002,-0.46302809000000006,-1.3658717800000002
11,0.5834,-16.1084817432,-7.5900332872,-7.384250543599999,0.07452431000000001,1.2363705200000001,-0.9162825000000001
11,0.5834,20.1619232276,-5.38385085,-5.2977092364,-0.13927494,2.29192796,-1.5210289500000003
11,0.5834,63.098731961999995,-6.077769404,9.9493563708,0.13194468,2.6254547900000005,-1.4648302900000003
11,0.5834,34.207791889599996,4.3692940676,9.384650237199999,0.22357293000000003,-1.08854361,-0.7440213900000001
11,0.5834,-25.7371998856,6.8530439264,-10.1742816952,0.31764460000000005,-2.6718797700000003,0.28588014000000006
11,0.5834,-30.9248392824,15.1274244772,-1.0959127508,0.28954527,-0.12461442000000002,0.4691366400000001
11,0.5834,10.7629160548,19.7264295144,-1.0001998468,0.34574393000000003,1.9767267800000003,0.6242938100000001
11,0.5834,49.7994239512,8.3174513576,5.2354958488,0.5448826600000001,2.2002997100000004,1.2986777300000003
11,0.5834,33.6239431752,17.0751820736,8.709874264,0.27121962000000005,-1.17161989,1.6859598000000002
11,0.5834,-8.5471623272,5.7619168208,-0.11485548479999999,0.28221501000000004,-3.560062940000001,1.3585415200000002
11,0.5834,-17.745172401599998,7.8771719992,-9.8919286284,0.07452431000000001,-2.4788495900000003,0.7391345500000002
11,0.5834,-3.2590243811999997,6.3505511804,-2.608176634,-0.03298617,-0.28588014000000006,0.7440213900000001
11,0.5834,11.198409768,-1.579262916,-2.0626130812,-0.039094720000000006,0.04153814000000001,0.8515318700000002
11,0.5834,3.0340990568,0.5407779076,-7.7479595788,-0.29809724000000004,-1.2779086600000003,0.7757858500000001
12,0.6317,-11.940184774,10.217352502,3.11066938,-0.08551970000000002,-1.0360100800000003,0.9419384100000001
12,0.6317,-5.0201418148,-1.4309079148,21.29612114,0.6487280100000001,0.6365109100000002,1.0531140200000002
12,0.6317,7.159325219199999,-2.1104695332,-24.6317158444,-0.24678542000000003,1.2840172100000002,1.5039250100000003
12,0.6317,-15.4432770604,4.5415772948,-2.8857440556,-0.23090319000000004,-1.1337468800000001,2.0072695300000003
12,0.6317,-38.40480273,6.125625856,-4.4315074552,0.030542750000000004,-0.7721207200000001,2.3786693700000003
12,0.6317,-22.616959215199998,2.7661029256,-1.0049854919999999,0.06352892000000002,1.8606643300000003,2.5484870600000002
12,0.6317,20.793628394,8.685946037999999,22.7174577644,-0.4385938900000001,2.2516115300000004,2.1269971100000005
12,0.6317,24.4737895528,12.7728870388,5.74277424,-0.5351089800000001,-1.0396752100000002,1.6920683500000002
12,0.6317,-14.0506543072,5.5465627868,-21.0041967828,0.08796312000000002,-3.7237720800000007,1.3157816700000002
12,0.6317,-21.511475174,17.2139657844,-13.4428773668,-0.4398156000000001,-1.9376320600000003,0.4899057100000001
12,0.6317,-8.810372813199999,27.2159642524,20.1427806468,-0.5131182000000001,0.27121962000000005,0.16004401000000001
12,0.6317,-23.8277274508,-17.324035624,17.5537465936,-0.010995390000000002,-1.0066890400000001,1.1080909700000001
12,0.6317,-48.4020155528,-8.901300072,-19.089938702799998,-0.20158215000000004,-2.3261358400000005,1.10686926
12,0.6317,-16.5439754564,-1.7276179172,-12.2847512284,-0.17348282000000004,2.0707984500000003,0.7513516500000001
12,0.6317,2.8091737324,19.7934285472,3.5796626095999997,0.11972758000000001,1.9168629900000003,0.38972549000000006
12,0.6317,6.245266986,8.0590265168,1.8520446924,0.10751048000000002,1.4611651600000002,-0.023212490000000002
12,0.6317,11.9784699356,14.0745825332,16.8502567492,-0.3261965700000001,0.8002200500000002,-0.7195871900000002
12,0.6317,-13.9214418868,19.1569377356,4.5272203592,-0.09284996000000001,-2.4983969500000005,-1.4513914800000003
12,0.6317,-55.3747006092,4.235296002,-22.899312282,0.37384326000000007,-2.25894179,-1.6676341500000003
12,0.6317,-4.2161534212,11.763115901599999,7.2406811876,-0.05253353000000001,2.5423785100000003,-1.8948722100000004
13,0.6806,16.2855506156,8.7960158776,13.1796668808,0.010995390000000002,2.2638286300000003,-1.8655511700000003
13,0.6806,6.005984725999999,6.6185473115999995,-3.6131621259999998,0.07208089000000001,0.5131182000000001,-1.8020222500000003
13,0.6806,-4.9627140724,4.6755753604,0.3302095188,0.16126572000000003,0.25167226000000004,-1.5601236700000003
13,0.6806,-2.4023938904,-5.647061336,17.6877446592,0.56320831,0.5363306900000001,-1.4184053100000003
13,0.6806,-5.5657053676,0.5168496816,-23.9473685808,-0.21868609000000003,0.4190465300000001,-1.4917079100000001
13,0.6806,-8.9539421692,11.117053799599999,1.0432706536,-0.05375524000000001,1.0018022000000002,-1.7006203200000003
13,0.6806,20.7266293612,-8.7625163612,17.7738862728,0.6389543300000001,3.3096123900000007,-2.0646899000000003
13,0.6806,54.9535638316,9.9732845968,-3.2111679291999997,0.18936505000000003,2.2845977000000004,-2.3444614900000005
13,0.6806,31.2598344464,6.4271215036,21.147766138799998,0.4666932200000001,-2.9540947800000006,-2.5716995500000004
13,0.6806,-14.3952207616,17.7882432084,-11.5477618676,0.04520327000000001,-4.4775671500000005,-2.62423308
13,0.6806,-15.2757794784,21.3774771084,-18.257236438,0.4715800600000001,-1.1105343900000002,-2.2430595600000003
13,0.6806,-2.0051853388,22.4877467948,18.4295196652,0.21868609000000003,-0.41538140000000007,-1.3279987700000002
13,0.6806,-5.0823552024,12.0933254204,15.0604254444,0.05497695000000001,-1.7018420300000003,-1.3573198100000001
13,0.6806,-9.7962157244,-18.1950230504,-21.3296206564,0.24189858000000003,1.3451027100000001,-1.3646500700000002
13,0.6806,65.42455552919999,14.3042935028,-8.6524465216,-0.55709976,4.318744850000001,-2.15631815
13,0.6806,95.34919496479999,-13.4141634956,22.6743869576,0.4593629600000001,1.7568189800000003,-1.8508906500000002
13,0.6806,13.0791683316,5.072783912,6.0203416616,0.20280386000000003,-4.923491300000001,-0.9346081500000002
13,0.6806,-78.0155880504,18.089738856,-7.6043902228,0.16737427000000002,-5.9668316400000005,-0.09407167000000001
13,0.6806,-46.7413966684,16.2855506156,-9.714859756,0.30664921000000006,1.9840570400000004,0.7293608700000002
13,0.6806,33.4708025288,22.2867496964,-4.0342989036,0.6536148500000001,6.341896610000001,1.4269572800000003
14,0.7285,70.8227633148,12.1698957436,10.9543418628,0.8747443600000001,4.188021880000001,2.17097867
14,0.7285,36.844682394799996,5.7236316592,22.8897409916,0.6084115800000001,-1.6309828500000003,2.5741429700000005
14,0.7285,0.5886343596,7.6474610296,0.7944171032,0.5656517300000001,-5.390184520000001,1.8814334000000004
14,0.7285,-38.1080927276,5.4412785924,-24.488146488399998,0.35307419000000007,-3.9803311800000007,1.3768671700000001
14,0.7285,-16.7449725548,0.9906285564,-0.4019941968,0.07574602000000001,0.3261965700000001,1.03723179
14,0.7285,28.1348081308,7.4225357052,11.8971139672,0.004886840000000001,0.1343881,0.8979568500000001
14,0.7285,5.4029934308,-1.0815558152,1.2251251712,0.33719196000000007,-3.2338663700000003,0.9480469600000001
14,0.7285,-42.5013150212,0.12442677519999999,-21.9517545324,-0.18692163000000003,-1.6346479800000002,1.2363705200000001
14,0.7285,1.579262916,13.5816610776,11.4903341252,-0.14294007000000003,1.4550566100000002,1.7604841100000004
14,0.7285,24.416361810399998,-7.0301127988,-7.6235328036,0.34330051000000006,-2.2100733900000002,2.2577200800000004
14,0.7285,-35.1218501228,3.2015966388,-8.1786676468,-0.28099330000000006,-4.933264980000001,2.6193462400000005
14,0.7285,-58.7485804752,5.2211389132,4.737788748,-0.15271375000000004,-0.4764669000000001,3.2521920200000007
14,0.7285,4.3118663252,6.987041992,-5.886343596,-0.12217100000000002,3.5893839800000005,3.1740025800000007
14,0.7285,50.900122347199996,20.1571375824,1.4452648504,-0.12705784000000003,1.1227514900000002,2.2357293000000005
14,0.7285,-11.0931255736,17.9461695,6.0107703712,0.037873010000000006,-3.1312427300000003,2.2247339100000003
14,0.7285,-58.2125882128,35.2127773816,-5.74277424,0.21502096000000004,-1.9755050700000003,1.8912070800000003
14,0.7285,-2.5746771176,-24.737000038799998,4.977071008,0.52777872,1.9278583800000004,1.2693566900000002
14,0.7285,-2.9766713144,-0.062213387599999996,2.6991038927999997,-0.07818944000000001,0.38483865000000006,0.20036044000000003
14,0.7285,-7.8436724828,-16.366906584,-5.2067819775999995,0.39949917000000007,-0.31764460000000005,0.7537950700000001
14,0.7285,-35.830125612399996,3.0245277664,-27.900311516,0.17592624000000004,-2.9858592400000004,0.8283193800000002
15,0.777,-28.0965229692,16.9363983628,13.1892381712,0.10995390000000002,-0.4666932200000001,0.12217100000000002
15,0.777,15.2470656072,19.812571128,24.6317158444,0.014660520000000003,1.6932900600000003,-0.6585016900000001
15,0.777,17.2235370748,20.951554685599998,4.5128634236,0.20158215000000004,-0.39461233000000007,-0.35918274000000006
15,0.777,-23.6937293852,8.350950874,-8.8965144268,0.4960142600000001,-2.2479464000000005,-0.3933906200000001
15,0.777,-39.9074953228,17.1182528804,-11.868400096,0.5106747800000001,-0.8686358100000001,-1.3548763900000003
15,0.777,-6.4558353747999995,8.1930245824,4.4171505196,0.5241135900000001,1.9205281200000004,-1.6541953400000002
15,0.777,15.8787707736,8.1547394208,14.261222695999999,0.26022423000000006,2.0585813500000003,-1.3756454600000003
15,0.777,10.7007026672,5.0057848792,-4.953142782,0.27610646000000005,0.8539752900000002,-1.3646500700000002
15,0.777,-15.3667067372,-1.6654045296,-6.9200429592,0.51556162,0.26022423000000006,-1.7226111000000002
15,0.777,-12.8207434908,1.5505490447999999,-2.2109680824,0.21868609000000003,1.4184053100000003,-1.5967749700000002
15,0.777,11.820543643999999,-1.8807585636,12.725030586799999,0.5094530700000001,1.8313432900000004,-1.4135184700000003
15,0.777,11.72483074,-1.7036896912,1.7802600144,0.31886631000000004,0.6792707600000001,-1.8288998700000003
15,0.777,23.578873900399998,4.3932222936,-8.4801632944,0.07330260000000001,1.0592225700000002,-2.29192796
15,0.777,39.979280000799996,9.21236701,8.3222370028,0.35307419000000007,0.7562384900000001,-1.9522925800000004
15,0.777,10.1264252432,16.5870462632,1.0336993632,0.30298408000000004,-2.28581941,-1.7617058200000002
15,0.777,-13.7874438212,19.8460706444,4.2783668087999995,0.12217100000000002,-1.9913873000000004,-1.7604841100000004
15,0.777,-23.0763811544,20.985054202,0.9236295236,-0.16004401000000001,-0.16126572000000003,-1.0066890400000001
15,0.777,-14.8259288296,4.618147618,-6.173482308,0.05864208000000001,0.8344279300000002,-0.4899057100000001
15,0.777,24.354148422799998,-6.1351971463999995,1.651047594,0.039094720000000006,2.6181245300000002,-1.5185855300000002
15,0.777,69.1860726564,9.6239324972,4.7760739096,-0.10140193000000002,4.008430510000001,-2.0133780800000003
16,0.8245,41.2235477528,-0.0095712904,11.6721886428,0.22845977000000003,-1.0983172900000002,-2.0011609800000003
16,0.8245,37.610385626799996,8.9443708788,1.0001998468,0.11117561000000002,-2.0756852900000005,-1.5674539300000003
16,0.8245,-52.752167039599996,4.9962135888,-12.6676028444,0.24189858000000003,-3.6406958000000005,-0.61452013
16,0.8245,-65.10391730079999,13.677373981599999,-13.0743826864,0.10384535000000002,-0.12339271000000002,0.38606036000000005
16,0.8245,14.5340044724,10.1024970172,4.7952164904,0.22968148000000005,7.3986757600000015,1.7775880500000003
16,0.8245,73.1294443012,15.8500569024,14.5627183436,0.09529338000000001,7.105465360000001,2.47640617
16,0.8245,40.6492703288,10.0594262104,12.5431760692,0.14049665000000003,-0.11850587000000001,2.6095725600000006
16,0.8245,1.2969098492,3.9768711612,-1.4069796888,0.09284996000000001,-2.1086714600000005,2.5326048300000004
16,0.8245,-25.4739893996,10.64806057,-7.2358955424,0.15271375000000004,-1.1911672500000001,1.8362301300000003
16,0.8245,-7.4703921572,3.0436703472,6.1782679532,0.13194468,0.8551970000000001,1.1826152800000003
16,0.8245,4.9148576204,1.55533469,8.183453292,0.04275985000000001,0.7733424300000001,0.9627074800000002
16,0.8245,11.4759771896,-1.5601203352,-16.5870462632,-0.16615256000000003,-0.7965549200000002,1.1801718600000002
16,0.8245,1.4500504956,11.308479607599999,-0.4163511324,-0.14049665000000003,-1.9058676000000003,1.6505302100000003
16,0.8245,-18.386448858399998,-0.9523433948,21.8847554996,0.5717602800000001,-2.8319237800000003,2.0769070000000003
16,0.8245,-34.7102846356,-2.2061824372,-18.951154992,0.05009011000000001,-2.6547758300000006,2.5790298100000006
16,0.8245,-13.304093656,13.0025980084,0.8183453292,-0.11117561000000002,0.13072297000000002,2.9773072700000003
16,0.8245,-16.8024002972,12.7346018772,-0.5647061336,0.16248743000000002,-0.26755449000000003,3.3548156600000008
16,0.8245,6.2596239216,8.7864445872,1.5170495284,0.32741828000000006,-1.7128374200000003,2.7696165700000006
16,0.8245,20.8941269432,21.678972756,9.0496550732,-0.30054066000000007,-2.0182649200000005,1.9950524300000003
16,0.8245,-35.0692080256,26.5794734408,9.001798621199999,-0.4752451900000001,-2.4507502600000004,1.8997590500000003
17,0.8727,-33.2267346236,21.032910654,-38.3713032136,-0.32008802000000003,-0.4911274200000001,0.8991785600000002
17,0.8727,13.2418802684,-9.1549392676,27.8907402256,-0.10018022000000001,0.8808529100000001,0.8832963300000002
17,0.8727,-44.396430520399996,-24.0095819684,9.6526463684,0.14416178000000002,-3.2558571500000006,0.9798114200000002
17,0.8727,-42.8745953468,-10.2939228252,-18.654444989599998,-0.26266765000000003,-0.37384326000000007,0.9578206400000001
17,0.8727,-0.014356935599999999,15.5964177068,-5.3934221404,-0.08551970000000002,1.1215297800000001,0.28832356000000003
17,0.8727,14.907284798,25.2777779464,4.0151563228,0.006108550000000001,-0.6035247400000001,-0.44225902000000006
17,0.8727,6.9200429592,21.0711958156,2.9096722816,0.15027033000000004,-1.6053269400000003,-0.6682753700000001
17,0.8727,-33.3655183344,17.0751820736,16.3621209388,-0.06230721000000001,-2.6559975400000004,-1.2156014500000003
17,0.8727,-23.8612269672,17.0991102996,-4.8909293944,-0.1343881,-0.7293608700000002,-2.1404359200000003
17,0.8727,5.2019963324,12.3086794544,-14.0745825332,-0.020769070000000004,0.6975964100000002,-2.0243734700000005
17,0.8727,3.9146577736,5.3168518172,-0.45942193919999996,0.10628877000000002,-0.6743839200000001,-1.7959137000000003
17,0.8727,2.0003996936,4.9627140724,20.4729901656,0.4923491300000001,0.5705385700000001,-1.5650105100000002
17,0.8727,-25.0193531056,-10.6767744412,-4.3692940676,0.42271166000000004,2.3249141300000002,-1.5356894700000003
17,0.8727,-9.9445707256,11.0596260572,-29.1110797516,-0.8771877800000002,4.906387360000001,-1.8313432900000004
17,0.8727,52.412386230399996,3.0723842184,22.4398903428,0.14782691000000003,6.242938100000001,-2.0158215000000004
17,0.8727,50.5507702476,9.8632147572,-2.2779671152,0.12827955000000002,2.21984707,-2.2809325700000005
17,0.8727,19.2670075752,7.585247642,14.0267260812,-0.14782691000000003,-0.7647904600000002,-2.2002997100000004
17,0.8727,10.0833544364,26.5507595696,6.5850477951999995,-0.54732608,-1.7140591300000003,-2.02926031
17,0.8727,-19.1138669288,37.5003157872,-12.1220392916,0.3933906200000001,-2.7048659400000004,-1.5417980200000003
17,0.8727,-63.0365185744,6.3026947284,-8.0015987744,0.6988181200000001,-1.5992183900000003,-1.1349685900000002
18,0.9206,26.703900216,3.34995164,23.952154226,0.018325650000000002,5.139733970000001,-2.09889778
18,0.9206,118.588288056,-5.1110690735999995,-0.8709874263999999,0.15027033000000004,5.044440590000001,-2.1966345800000004
18,0.9206,76.00561706639999,-15.43370577,-9.6239324972,-0.14171836000000002,-2.8441408800000003,-1.4575000300000003
18,0.9206,-36.8351111044,16.606188844,-6.5754765048,-0.28343672000000003,-6.797594440000001,-0.5644300200000001
18,0.9206,-91.07561380119999,13.5960180132,2.4789642136,-0.16981769000000002,-1.9803919100000003,0.4813537400000001
18,0.9206,-35.676984966,29.020152492799998,-2.177468566,-0.20891241000000002,6.161083530000001,1.1740633100000002
18,0.9206,66.0945458572,20.721843716,-2.105683888,-0.20402557000000004,7.789622960000001,1.7983571200000004
18,0.9206,64.7689221368,19.1856516068,-5.9772708547999995,-0.27854988,3.9937699900000005,2.6413370200000004
18,0.9206,19.4584333832,4.211367776,9.6287181424,0.26999791000000006,0.8283193800000002,2.7732817000000005
18,0.9206,3.6705898684,-1.4404792052,18.089738856,-0.04275985000000001,-2.5607041600000002,1.7458235900000003
18,0.9206,-16.2329085184,1.818545176,-4.5846481016,-0.5619866000000001,-3.898476610000001,1.3964145300000002
18,0.9206,-25.0672095576,-1.507478238,-27.7663134504,-1.0140193000000002,-2.8258152300000003,1.4733822600000002
18,0.9206,-42.281175342,10.2364950828,4.3884366484,-0.31886631000000004,0.38606036000000005,1.6199874600000002
18,0.9206,-9.2171526552,-0.9954142015999999,-7.7814590952,-0.7672338800000001,4.8501887,1.9131978600000004
18,0.9206,32.9108820404,14.2947222124,18.807585636,-1.2510310400000002,0.5070096500000001,2.0671333200000004
18,0.9206,-8.303094422,21.942183242,-3.6610185779999997,-0.8930700100000002,-5.991265840000001,2.0964543600000005
18,0.9206,-55.834122548399996,13.1557386548,-21.678972756,-0.42637679000000006,-2.47640617,1.7849183100000003
18,0.9206,-12.4378918748,12.7011023608,1.4548361408,-0.34452222000000005,3.5735017500000006,1.3548763900000003
18,0.9206,48.765724588,19.8317137088,27.6993144176,-0.23823345000000004,1.6737427000000002,0.8197674100000001
18,0.9206,-12.7011023608,-3.1680971224,-15.0077833472,0.09284996000000001,-2.8514711400000006,1.1899455400000003
19,0.9721,-90.9703296068,9.499505722,-17.2474653008,0.07330260000000001,-1.8093525100000003,2.0268168900000005
19,0.9721,-37.830525306,1.7850456596,3.2829526072,0.04031643000000001,3.5710583300000005,1.9742833600000003
19,0.9721,-1.890329854,-7.5278198996,11.6674029976,-0.014660520000000003,3.1764460000000003,1.2595830100000003
19,0.9721,29.857640402799998,6.8530439264,-0.4498506488,-0.7586819100000001,1.6163223300000003,0.29565382000000007
19,0.9721,14.701502054399999,11.2319092844,-2.7900311516,-0.5913076400000001,-1.4061882100000003,-0.22112951000000003
19,0.9721,-10.0689975008,15.4528483508,3.7184463204,-0.14171836000000002,-3.3804715700000005,-1.5723407700000003
19,0.9721,-18.66401628,20.898912588399998,11.3276221884,-0.18447821000000003,-3.7958529700000008,-2.7036442300000005
19,0.9721,-21.2434790428,9.9876415324,15.993626258399999,-0.09651509000000001,-3.2509703100000005,-2.7708382800000004
19,0.9721,-14.1607241468,11.566904448399999,-15.151352703199999,0.06108550000000001,-2.2418378500000005,-2.4605239400000003
19,0.9721,4.3740797127999995,6.9918276372,-9.647860723199999,0.8051068900000001,1.1435205600000002,-1.9547360000000003
19,0.9721,-17.3671064308,-7.1018974768,-11.4951197704,0.21990780000000004,1.6651907300000002,-1.6541953400000002
19,0.9721,-15.6394885136,8.7625163612,7.9872418388,-0.43615047000000007,5.149507650000001,-1.5442414400000002
19,0.9721,40.2042053252,1.07677017,27.3451766728,0.09529338000000001,7.395010630000002,-2.01459979
19,0.9721,53.8959362424,8.25523797,-18.376877568,-0.20036044000000003,3.9632272400000006,-2.3969950200000003
19,0.9721,39.5198580616,12.8781712332,2.1008982428,0.17836966000000004,0.4544761200000001,-3.1581203500000004
19,0.9721,17.2713935268,17.6494594976,5.5465627868,0.13805323000000003,-0.6597234000000001,-3.0884828800000004
19,0.9721,-6.8243300552,22.325034858,9.714859756,0.7916680800000001,-2.4116555400000004,-2.9504296500000007
19,0.9721,-21.942183242,38.237305148,18.6688019252,0.5558780500000001,-2.5020620800000004,-2.3566785900000005
19,0.9721,-16.7784720712,23.9425829356,-5.0823552024,0.30787092000000005,0.7330260000000001,-1.9486274500000003
19,0.9721,34.404003342799996,-31.22633493,-26.249263922,0.5937510600000001,2.9553164900000004,-1.6566387600000003
20,1.0223,86.9168881224,-7.3603223176,0.5790630692,-0.25900252000000007,2.9663118800000006,-1.5185855300000002
20,1.0223,48.0574490984,-2.3545374384,25.2969205272,-0.22357293000000003,-1.9730616500000002,-0.45691954000000007
20,1.0223,-36.3421896488,20.7744858132,3.1154550251999997,-0.5900859300000001,-6.4017604000000015,0.26144594000000004
20,1.0223,-54.747781087999996,42.367316955599996,-11.2271236392,-0.6975964100000002,-0.9199476300000001,0.9761462900000002
20,1.0223,-20.9036982336,28.9435821696,-8.949156524,0.028099330000000006,4.635167740000001,1.1129778100000003
20,1.0223,56.5854688448,19.26222193,-7.2885376395999995,0.18325650000000002,8.128036630000002,1.1801718600000002
20,1.0223,45.482771980799996,1.4787643668,27.3116771564,0.5839773800000001,3.5759451700000007,2.5826949400000005
20,1.0223,0.9523433948,4.498506488,-9.140582332,-0.21990780000000004,-2.7244133000000006,2.5851383600000006
20,1.0223,-66.2189726324,7.77667345,-14.7493585064,-0.08307628000000002,-3.925354230000001,2.1025629100000005
20,1.0223,-57.30810127,21.1190522676,-8.2839518412,0.08185457000000002,0.7757858500000001,1.1422988500000002
20,1.0223,38.591442892799996,16.8837562656,1.0432706536,0.035429590000000004,4.275985,0.6267372300000001
20,1.0223,26.009981661999998,11.5429762224,14.3760781808,-0.12094929000000001,-0.4129379800000001,0.8344279300000002
20,1.0223,-19.1234382192,23.7080863208,5.8528440796,-0.46791493000000006,-6.107328290000001,0.0024434200000000004
20,1.0223,-35.9210528712,-10.030712339199999,0.4642075844,-0.012217100000000002,-4.1904653000000005,0.8894048800000002
20,1.0223,-16.9124701368,22.6696013124,-45.7555537572,-0.9346081500000002,-2.5716995500000004,2.08057213
20,1.0223,-127.0301661888,23.4305188992,7.05882667,-0.4813537400000001,-5.299777980000001,3.7188852400000005
20,1.0223,-84.1890703584,-7.6426753843999995,19.094724348,0.6511714300000001,-0.26633278000000005,2.3969950200000003
20,1.0223,68.6883655556,-4.8287160068,-5.8049876276,-0.15149204000000002,9.684495170000002,0.8515318700000002
20,1.0223,125.958181664,23.5740882552,8.1738820016,-0.4043860100000001,3.0933697200000005,-0.53144385
20,1.0223,-11.4472633184,15.4959191576,-8.25523797,0.35918274000000006,-6.280811110000001,-1.5735624800000003
21,1.0661,-79.8819896784,6.5659052144,-2.3593230836,0.7073700900000001,-4.135488350000001,-3.5209682200000008
21,1.0661,-25.5409884324,18.879370314,30.580272828,-0.45814125000000006,1.3988579500000002,-4.17702649
21,1.0661,-7.8149586116,12.782458329199999,-16.558332392,-0.6866010200000001,2.24061614,-2.9186651900000005
21,1.0661,24.1722939052,16.5870462632,-44.6596410064,-0.10995390000000002,3.6577997400000006,-2.5484870600000002
21,1.0661,108.8064292672,38.2755903096,10.5236337948,-0.21135583000000002,4.589964470000001,-1.7641492400000003
21,1.0661,80.0447016152,22.2819640512,55.585268998,0.46302809000000006,-2.3847779200000003,-0.54732608
21,1.0661,-45.946979565199996,33.1980207524,-1.124626622,0.04398156000000001,-7.360802750000001,0.32375315000000005
21,1.0661,-88.5775070068,3.2015966388,1.8281164664,0.4251550800000001,-5.1751635600000006,0.42637679000000006
21,1.0661,-98.4311504736,17.3383925596,-41.1996195268,0.5033445200000001,5.630861390000001,-0.50212281
21,1.0661,135.3428319012,-19.2095798328,37.160534978,1.4294007000000002,16.945117700000004,-2.5130574700000006
21,1.0661,147.8860079704,-12.1890383244,28.584658779599998,0.5558780500000001,3.2754045100000004,-1.3622066500000003
21,1.0661,-37.093535945199996,-9.131011041599999,31.178478478,0.11850587000000001,-16.335484410000003,0.09284996000000001
21,1.0661,-143.9091368092,33.4947307548,-18.0801675656,-0.6365109100000002,-13.838309170000002,0.6853793100000001
21,1.0661,-102.9440138972,44.2815750356,-35.9114815808,-0.6646102400000001,-1.01768443,1.1410771400000002
21,1.0661,-20.9898398472,49.6845684664,3.0340990568,-0.21990780000000004,9.01499809,2.3835562100000005
21,1.0661,58.4422991824,5.02492746,54.3314299556,1.7519321400000003,11.684434440000002,2.7928290600000003
21,1.0661,70.9328331544,6.8004018292,-16.5535467468,0.007330260000000002,3.2375315000000007,3.3047255500000006
21,1.0661,21.6598301752,30.1591360504,21.6502588848,-0.19547360000000003,-11.281270140000002,2.3444614900000005
21,1.0661,-124.74262778319999,33.0640226868,-25.0911377836,0.1343881,-13.277544280000003,1.0445620500000001
21,1.0661,-74.0052173728,2.3162522768,-17.2666078816,0.19425189000000004,2.4971752400000002,-1.1484074000000002
22,1.1137,92.9085159128,3.9290147092,38.4670161176,-1.1422988500000002,6.730400390000001,-1.3328856100000002
22,1.1137,42.099320824399996,-5.8289158536,15.242279962,-1.0079107500000002,-6.596012290000001,-0.49967939000000006
22,1.1137,-144.16756165,-4.2879380992,-85.5481935952,-0.8466450300000001,-11.868912650000002,1.6456433700000002
22,1.1137,-104.1643534232,6.8243300552,25.1389942356,-0.40560772000000006,-0.7928897900000001,1.0873219000000003
22,1.1137,69.0760028168,-2.057827436,30.3601331488,0.5742037000000001,7.5342855700000015,-0.6804924700000001
22,1.1137,135.6538988392,32.518459134,10.4422778264,0.22112951000000003,5.206928020000001,-1.2180448700000002
22,1.1137,8.3748791,25.7802706924,-10.2508520184,1.03112324,-6.7218484200000015,-1.5295809200000003
22,1.1137,-74.703921572,10.3417792772,-6.6376898924,1.1239732000000002,-4.13671006,-2.9296605800000006
22,1.1137,-27.4504608672,5.0584269764,-29.6757858852,-0.12583613000000002,4.48123228,-4.47268031
22,1.1137,59.6722099988,50.9862639608,23.382662447199998,-1.01768443,6.782933920000001,-4.301640910000001
22,1.1137,121.9813105028,38.644084989999996,25.947768274399998,-0.34207880000000007,-0.16493085000000002,-2.4226509300000005
22,1.1137,-12.6197463924,25.182065042399998,-6.4031932776,0.8405364800000001,-9.238571020000002,-0.16248743000000002
22,1.1137,-151.01581993119999,50.057848792,6.7094745704,-0.33474854000000004,-4.326075110000001,0.7818944000000001
22,1.1137,-38.811582572,4.0055850324,-7.7192457076,0.18325650000000002,12.049725730000002,-0.007330260000000002
22,1.1137,152.1213039724,-54.508498828,6.0921263396,0.3567393200000001,13.786997350000002,-0.8307628000000001
22,1.1137,141.7125256624,-4.9962135888,40.462630166,0.17959137000000003,-3.2411966300000006,-0.8161022800000002
22,1.1137,-41.6398988852,-12.4857483268,7.6091758679999995,0.6267372300000001,-13.991022920000002,0.33352683000000005
22,1.1137,-128.7721410416,22.325034858,6.8626152168,-0.46302809000000006,-8.737669920000002,0.2846584300000001
22,1.1137,-23.578873900399998,44.1858621316,-30.5228450856,-1.2229317100000001,1.01157588,-0.08429799000000002
22,1.1137,-23.736800192,67.7838786128,-11.763115901599999,-0.7256957400000001,4.9821333800000005,1.9645096800000004
23,1.1643,-31.8819683224,-0.7130611348,23.282163898,1.0360100800000003,3.9351279100000007,3.560062940000001
23,1.1643,23.0955237352,20.4538475848,14.572289634,-0.9272778900000002,3.707889850000001,3.925354230000001
23,1.1643,10.7677017,34.5954291508,36.9499665892,-0.9541555100000002,-3.1312427300000003,2.5020620800000004
23,1.1643,-37.0504651384,37.9645233716,-51.2925452536,-1.01157588,-4.845301860000001,0.5693168600000001
23,1.1643,13.2705941396,30.6616287964,-9.772287498399999,-0.7513516500000001,1.0751048,-0.4972359700000001
23,1.1643,21.918255016,12.0741828396,33.6813709176,-0.63040236,0.003665130000000001,-0.29809724000000004
23,1.1643,-130.025980084,-56.9826773964,12.1938239696,-0.0024434200000000004,-7.765188760000001,0.05864208000000001
23,1.1643,-112.70194445999999,-4.3453658416,-22.368105664799998,-0.8930700100000002,-1.6346479800000002,-0.41660311000000005
23,1.1643,17.4101772376,-14.2899365672,-31.8101836444,-0.037873010000000006,6.983294360000001,-0.7660121700000001
23,1.1643,136.079821262,45.4684150452,38.6632275708,0.4300419200000001,4.271098160000001,-1.7372716200000002
23,1.1643,20.0327108072,18.0083828876,5.6566326263999995,1.3414375800000002,-4.840415020000001,-2.2894845400000006
23,1.1643,-49.8855655648,40.816767910799996,7.8819576444,0.14782691000000003,-1.6016618100000002,-4.102502180000001
23,1.1643,20.1379950016,28.9100826532,-26.3258342452,-0.19547360000000003,3.8887029300000004,-5.225253670000001
23,1.1643,63.3810850288,37.20839143,7.3268228012,0.6817141800000001,2.5020620800000004,-4.42381191
23,1.1643,15.07478238,64.295143262,8.4753776492,0.3982774600000001,-1.4562783200000002,-1.5112552700000002
23,1.1643,-92.4060231668,50.0243492756,21.439690496,0.7318042900000001,-3.0237322500000006,0.018325650000000002
23,1.1643,-34.5858578604,24.981067944,-7.752745224,-0.34085709000000003,4.922269590000001,0.5045662300000001
23,1.1643,80.8726182348,-70.66005137799999,-22.7461716356,-0.19913873000000004,11.093126800000002,-0.8832963300000002
23,1.1643,156.6006678796,-2.03389921,21.3104780756,-0.8551970000000001,8.311293130000001,-1.00546733
23,1.1643,102.1687393748,-45.2626323016,51.2351175112,0.51556162,-5.169055010000001,-0.8478667400000002
24,1.2115,-74.9862746388,31.8388975156,3.637090352,-0.7745641400000002,-14.731379180000003,-0.7220306100000001
24,1.2115,-133.256290594,35.1122788324,-41.2474759788,-1.0567791500000001,-7.333925130000001,0.3823952300000001
24,1.2115,-45.3296313344,77.096744172,-22.5308176016,-0.8539752900000002,4.299197490000001,2.1428793400000004
24,1.2115,2.4358934068,9.5042913672,31.4273320284,0.9162825000000001,5.316881920000001,4.349287600000001
24,1.2115,-0.59820565,7.752745224,14.9168560884,-0.18325650000000002,0.8881831700000001,5.194710920000001
24,1.2115,-0.5790630692,57.399028528799995,7.0971118315999995,-0.9321647300000001,-1.6676341500000003,4.574082240000001
24,1.2115,-13.2275233328,67.0756031232,-37.5529578844,-0.42759850000000005,-3.3206077800000005,2.0610247700000004
24,1.2115,36.1172643244,61.351971464,17.9844546616,0.26633278000000005,-0.37628668000000004,-0.16248743000000002
24,1.2115,-45.4205585932,-44.664426651599996,50.0913483084,0.7220306100000001,-2.7060876500000006,-0.27488475000000007
24,1.2115,-59.6961382248,-41.8408959836,-22.0713956624,-0.4544761200000001,-3.0249539600000004,-1.6554170500000003
24,1.2115,-65.0943460104,-28.771298942399998,-51.4074007384,-0.5241135900000001,-1.5735624800000003,-1.4526131900000003
24,1.2115,-13.7252304336,-1.9573288868,-17.3575351404,0.5485477900000001,-0.7550167800000002,-2.6987573900000004
24,1.2115,47.157747800799996,31.006195250799998,21.6741871108,1.0164627200000003,2.5387133800000004,-2.3701174000000003
24,1.2115,62.5770966352,29.4700031416,30.6616287964,0.8063286000000002,0.46302809000000006,-3.5722800400000008
24,1.2115,26.033909888,81.906317598,23.497517932,0.24067687000000004,-3.6529129000000005,-4.824532790000001
24,1.2115,55.0540623808,39.84049629,-44.343788423199996,1.0140193000000002,-0.9761462900000002,-4.516661870000001
24,1.2115,24.5216460048,65.96054779159999,-14.2277231796,0.5864208000000001,-1.5344677600000003,-2.1416576300000005
24,1.2115,-133.5865001128,35.9449810972,24.086152291599998,0.9993587800000001,-5.138512260000001,0.4666932200000001
24,1.2115,-135.0700501248,50.4263434724,5.8145589179999995,0.6927095700000001,4.332183660000001,-0.01710394
24,1.2115,78.3266549884,-61.9549627592,-16.414763036,0.4459241500000001,16.80462105,-1.3292204800000003
25,1.2587,156.7920936876,-4.354937132,34.404003342799996,-1.0751048,14.865767280000002,-3.2644091200000007
25,1.2587,106.78688699279999,-21.5019038836,46.8179669916,1.6444216600000003,-4.7646690000000005,-0.42148995000000006
25,1.2587,-125.4604745632,-36.083764808,9.7292166916,1.2241534200000002,-20.926670590000004,-1.6786295400000002
25,1.2587,-153.9207065676,54.1830749544,-25.387847786,-1.3890842700000001,-9.570876140000001,-0.5961944800000001
25,1.2587,-13.854442854,64.67799487799999,-10.5092768592,-0.5766471200000001,3.7091115600000006,1.4733822600000002
25,1.2587,-44.8749950404,27.3834618344,-19.1234382192,1.0518923100000002,4.5557565900000005,4.856297250000001
25,1.2587,7.2263242519999995,12.8303147812,18.5300182144,1.2485876200000001,5.988822420000001,5.970496770000001
25,1.2587,76.92924659,38.8785816048,57.6335251436,-0.33474854000000004,-1.5369111800000002,5.638191650000001
25,1.2587,-23.7990135796,106.0546832772,-17.7116728852,-1.0445620500000001,-10.197613370000001,3.8825943800000005
25,1.2587,-111.1513954152,44.5830706832,-56.4897559408,0.26022423000000006,-5.374302290000001,1.7177242600000002
25,1.2587,-34.5810722152,-57.863236113199996,17.491533206,0.45814125000000006,4.057298910000001,-1.8948722100000004
25,1.2587,96.31110964999999,-34.9447812504,70.8706197668,-0.4141596900000001,10.180509430000003,-3.4977557300000006
25,1.2587,11.3036939624,-46.0953345664,-15.9026989996,-0.030542750000000004,-5.265570100000001,-3.7042247200000005
25,1.2587,-122.799655832,6.8721865071999995,-51.9338217104,-0.15149204000000002,-10.179287720000001,-3.6529129000000005
25,1.2587,-22.2484645348,24.0191532588,-9.193224429199999,1.1178646500000002,0.61452013,-4.106167310000001
25,1.2587,44.339002778,58.241302084,33.9924378556,1.1349685900000002,5.599096930000001,-3.9510101400000006
25,1.2587,57.54738353,70.061845728,-1.3064811396,0.5253353000000001,3.2069887500000007,-2.7439606600000004
25,1.2587,110.63454573359999,95.7224752904,32.398818004,0.6841576000000001,1.15207253,-1.1117561000000002
25,1.2587,-3.732803256,32.9348102664,-18.065810629999998,1.3255553500000001,-7.859260430000001,0.9407167000000002
25,1.2587,-141.7173113076,32.748170103599996,-18.965511927599998,0.8674141000000002,-9.25811838,1.1410771400000002
26,1.3063,-124.48898858759999,-35.6961275468,1.9525432416,0.9101739500000001,10.063225270000002,0.8173239900000001
26,1.3063,124.38370439319999,8.9204426528,17.82652837,0.19791702000000003,21.266305970000005,-4.18557846
26,1.3063,156.7920936876,-27.1968216716,66.7549648948,0.15637888000000003,8.102380720000001,-4.368834960000001
26,1.3063,34.0642225336,-6.3984076324,24.4690039076,1.3292204800000003,-15.656213650000003,-3.4647695600000006
26,1.3063,-156.7585941712,-25.96212521,-19.0133683796,0.8674141000000002,-18.418499960000002,-2.1062280400000004
26,1.3063,-137.3288746592,55.637911095199996,-21.8799698544,-0.9492686700000001,-4.905165650000001,-0.5644300200000001
26,1.3063,-38.0793788564,63.529440029999996,7.9106715156,-0.27244133000000004,5.4989167100000005,2.1294405300000006
26,1.3063,-28.2257353896,7.6522466748,-36.2560480352,0.9126173700000001,9.319203880000002,5.731041610000001
26,1.3063,101.671032274,7.1880390904,33.954152694,0.8796312000000002,9.19581117,6.901439790000001
26,1.3063,91.8317457428,77.4891670784,50.96712138,-0.45325441000000005,-3.8496082100000004,7.473200070000002
26,1.3063,-93.28179623839999,45.9948360172,7.441678286,-0.41782482000000004,-16.645798750000004,6.611894520000001
26,1.3063,-152.255302038,3.924229064,-58.911292412,0.26266765000000003,-7.588040810000002,1.7372716200000002
26,1.3063,77.4700244976,-17.6542451428,4.4889351976,-0.5656517300000001,18.507684790000003,-3.2876216100000004
26,1.3063,156.7920936876,-9.1118684608,69.678994112,-0.37995181000000006,12.895149050000002,-5.939954020000001
26,1.3063,49.387858464,-73.4165830132,31.7431846116,1.2803520800000001,-15.171194780000002,-6.230721000000001
26,1.3063,-155.93067755159998,6.5850477951999995,-30.1543504052,-0.9223910500000001,-22.389057460000004,-5.507468680000001
26,1.3063,-139.1569911256,41.8552529192,-52.737810104,-0.22723806000000005,-1.8313432900000004,-4.911274200000001
26,1.3063,34.5810722152,86.86903167039999,22.2915353416,0.36406958000000006,14.538349000000002,-1.8032439600000003
26,1.3063,130.76775509,95.7224752904,-26.206193115199998,0.15760059,9.353411760000002,0.8576404200000002
26,1.3063,51.4791854164,80.5854795228,85.5577648856,1.0677745400000003,-1.5845578700000003,4.2478856700000005
27,1.36,-78.99664531639999,13.304093656,5.048855686,0.8894048800000002,-8.565408810000001,4.200238980000001
27,1.36,-45.6119844012,-51.3404017056,-47.550170707199996,0.4288202100000001,3.0738223600000003,2.2430595600000003
27,1.36,72.191457842,-12.7441731676,-1.2969098492,-0.23579003000000004,12.141353980000002,-0.25167226000000004
27,1.36,123.4983600312,3.2638100264,28.570301844,0.5974161900000001,3.7701970600000005,-3.5319636100000005
27,1.36,69.535424756,22.325034858,31.2071923492,0.8099937300000001,-5.421948980000001,-5.578327860000001
27,1.36,46.6935402164,-10.155139114399999,21.7316148532,-0.5461043700000001,-7.655234860000001,-5.823891570000001
27,1.36,-122.1248798588,29.8911399192,-17.5298183676,-0.8148805700000001,-10.096211440000001,-2.6694363500000002
27,1.36,-123.13465099599999,16.223337228,-33.3942322056,-0.6242938100000001,-2.2064082600000003,0.05009011000000001
27,1.36,-41.8121821124,30.74777041,10.8538433136,-0.003665130000000001,2.27115889,3.5063077000000007
27,1.36,-2.057827436,9.140582332,-6.9966132824,0.13072297000000002,6.023030300000001,6.440855120000001
27,1.36,75.2686277056,41.4149735608,14.0362973716,-0.42148995000000006,5.586879830000001,8.532422640000002
27,1.36,-26.1104802112,36.7011130388,51.823751870799995,-0.5827556700000001,-3.0848177500000005,10.986838030000001
27,1.36,-124.6517005244,-26.589044731199998,-27.4073900604,-0.21379925000000002,-6.879449010000001,7.855595300000001
27,1.36,-48.287160068,17.4006059472,-41.9557514684,-1.3475461300000002,4.216121210000001,2.2222904900000002
27,1.36,106.1551818264,29.4939313676,39.213576768799996,-0.9150607900000002,9.618522830000002,-2.4983969500000005
27,1.36,131.8158113888,-1.124626622,21.0903383964,0.26999791000000006,-0.30054066000000007,-6.285697950000001
27,1.36,33.6000149492,-48.708296845599996,8.360522164399999,0.43126363000000006,-9.266670350000002,-8.30518458
27,1.36,-60.9739054932,14.0506543072,15.2949220592,-1.7653709500000003,-14.326993170000001,-8.306406290000002
27,1.36,-121.1198943668,64.0510753568,-29.623143788,-0.9578206400000001,-8.96246456,-4.635167740000001
27,1.36,-102.4223785704,43.812581806,-41.7451830796,-0.028099330000000006,4.06707259,0.5461043700000001
28,1.4024,50.8426946048,114.51570399079999,-6.3984076324,-0.41782482000000004,11.917781050000002,4.398156000000001
28,1.4024,3.7184463204,41.8935380808,37.2753904628,1.0909870300000002,2.7244133000000006,6.356557130000001
28,1.4024,-4.0534414843999995,-52.7760952656,21.147766138799998,0.7085918000000001,4.703583500000001,6.230721000000001
28,1.4024,144.2297750376,-11.4281207376,-1.0576275892,-0.7928897900000001,9.165268420000002,2.5387133800000004
28,1.4024,94.803631412,1.5649059804,10.6528462152,-0.22845977000000003,0.25167226000000004,-0.23090319000000004
28,1.4024,-115.6738301292,-9.4420779796,-11.8349005796,0.9431601200000002,-7.939893290000001,-3.5991576600000004
28,1.4024,-6.9535424756,59.0261478968,7.992027483999999,-1.1044258400000002,1.6004401000000004,-6.211173640000001
28,1.4024,120.6748293632,12.203395259999999,39.7064982244,-0.6780490500000002,1.7519321400000003,-6.048686210000001
28,1.4024,1.5026925928,10.313065406,17.371892075999998,-0.22235122000000004,-8.515318700000002,-3.6932293300000008
28,1.4024,-154.2987725384,-14.500504956,-43.9944363236,-0.5375524,-7.610031590000001,0.9346081500000002
28,1.4024,-42.0753925984,19.2765788656,38.1128783728,-1.1923889600000002,1.0360100800000003,3.4452222000000003
28,1.4024,45.9613365008,29.154150558399998,9.4947200768,-1.0225712700000003,2.0952326500000003,5.955836250000001
28,1.4024,-25.3830621408,37.9070956292,-20.1332093564,-0.48868400000000006,-1.3585415200000002,8.92459155
28,1.4024,-106.9448132844,7.2837519944,-7.063612315199999,-0.34085709000000003,-2.8685750800000003,10.339331730000001
28,1.4024,-29.1254366872,-13.7013022076,32.0829654208,-0.44103731000000007,2.3065884800000003,7.608809880000002
28,1.4024,82.8060188956,8.4035929712,-22.37289131,-1.3670934900000002,5.233805640000001,2.4226509300000005
28,1.4024,34.030723017199996,48.492942811599995,6.838686990799999,-1.0836567700000002,-1.4330658300000003,-1.7006203200000003
28,1.4024,60.552768715599996,9.8297152408,-13.7539443048,0.05864208000000001,-4.37860864,-6.523931400000001
28,1.4024,50.0052066948,-5.9820565,25.2012076232,0.33719196000000007,-5.2936694300000005,-8.285637220000002
28,1.4024,-40.620556457599996,-28.6803716836,-9.6000042712,-0.5204484600000001,-10.725392090000001,-8.044960350000002
29,1.4514,-104.1308539068,81.3416114644,-26.9001116692,-2.4470851300000005,-5.3266556000000005,-3.6944510400000006
29,1.4514,-84.3517822952,53.886364952,-36.5288298116,-0.04275985000000001,4.593629600000001,2.3065884800000003
29,1.4514,37.3902459476,99.8955579048,6.364908116,0.26755449000000003,9.364407150000002,5.473260800000001
29,1.4514,-74.0722164056,-2.225325018,11.5621188032,1.17161989,4.188021880000001,7.517181630000001
29,1.4514,43.5541569652,-37.9932372428,18.8458707976,0.9211693400000002,12.206104610000002,5.557558790000001
29,1.4514,156.7920936876,-4.7330031028,-21.1621230744,0.16859598000000003,13.008768080000003,2.5142791800000004
29,1.4514,79.7862767744,-16.486547714,47.1673190912,1.3426592900000003,-4.113497570000001,-0.8026634700000002
29,1.4514,-127.1115221572,25.1150660096,-0.9954142015999999,1.0408969200000002,-10.071777240000001,-4.6131769600000005
29,1.4514,-27.6179584492,53.465228174399996,-5.4173503664,-0.5265570100000001,0.8906265900000001,-6.399316980000001
29,1.4514,89.0656428172,35.5860577072,30.9966239604,-0.4031643000000001,1.3475461300000002,-6.227055870000001
29,1.4514,14.979069476,-14.8737852816,21.1142666224,0.7366911300000001,-5.271678650000001,-3.1813328400000005
29,1.4514,-144.7561960096,-15.1369957676,-41.6877553372,-0.015882230000000004,-7.959440650000001,1.0665528300000002
29,1.4514,-49.316073786,-2.51246373,18.257236438,-0.9052871100000002,0.8270976700000001,4.216121210000001
29,1.4514,64.1898590676,14.3473643096,34.049865598,-0.9834765500000001,4.761003870000001,7.051710120000001
29,1.4514,-6.6616181184,54.7429954428,-16.3764778744,-1.10686926,-3.8948114800000004,8.564187100000002
29,1.4514,-148.7187102352,10.9160567012,-2.105683888,-0.60474645,-4.02919958,9.749245800000002
29,1.4514,-80.7290488788,-8.6285182956,-11.5142623512,-0.4556978300000001,4.098837050000001,6.159861820000001
29,1.4514,126.1831069884,12.078968484799999,-17.802600144,-0.6914878600000001,8.840293560000001,0.9517120900000001
29,1.4514,107.1314534472,47.9904500656,31.025337831599998,0.015882230000000004,-1.8716597200000002,-2.4336463200000003
29,1.4514,20.372491616399998,20.003996936,-2.6177479244,0.8356496400000001,-10.897653200000002,-6.635107010000001
30,1.5002,21.726829207999998,-24.6077876184,11.653046062,0.38117352000000004,-5.689503470000001,-7.385236950000001
30,1.5002,-63.5437969656,-10.4662060524,-30.5659158924,-0.7537950700000001,-10.543357300000002,-7.568493450000001
30,1.5002,-78.48458128,56.475399005199996,-6.4989061816,-1.4770473900000003,-2.7867205100000003,-3.1947716500000007
30,1.5002,-63.9218629364,61.1270461396,-25.6223444008,0.30909263000000003,7.393788920000001,2.1819740600000004
30,1.5002,22.6504587316,76.22097110039999,-24.157936969599998,0.6157418400000001,10.77181707,4.62050722
30,1.5002,-39.3284322536,16.3621209388,21.2769785592,1.0922087400000002,6.817141800000001,6.109771710000001
30,1.5002,28.426732488,-40.055850324,36.1459781956,0.9211693400000002,10.924530820000001,4.906387360000001
30,1.5002,153.93506350319998,-3.5318061575999997,-22.229321954,0.07574602000000001,11.587919350000002,0.8038851800000001
30,1.5002,74.7804918952,-11.7918297728,46.6552550548,0.9248344700000002,1.2595830100000003,-1.6737427000000002
30,1.5002,-49.5840699172,30.843483314,17.1278241708,1.0470054700000002,-7.303382380000001,-4.990685350000001
30,1.5002,-30.795626862,55.1689178656,-53.2546597856,0.4043860100000001,-3.5111945400000004,-6.302801890000001
30,1.5002,85.495551498,18.4055914392,52.9914492996,0.31520118,-0.26144594000000004,-6.900218080000001
30,1.5002,7.384250543599999,-12.155538808,26.8283269912,1.3328856100000002,-7.702881550000002,-3.0713789400000007
30,1.5002,-155.6196106136,-19.410576931199998,-42.4438872788,0.24800713000000005,-10.289241620000002,1.1752850200000002
30,1.5002,-27.4504608672,6.173482308,32.5041021984,-0.7147003500000001,1.9865004600000002,3.9668923700000005
30,1.5002,68.1045168412,9.451649269999999,11.7296163852,-0.7012615400000001,4.578969080000001,6.801259570000001
30,1.5002,-26.2109787604,65.419769884,-18.2907359544,-1.2595830100000003,-3.3010604200000007,8.426133870000001
30,1.5002,-143.7272822916,24.7561426196,38.189448696,-0.29076698000000006,-2.8160415500000004,9.094409240000001
30,1.5002,-69.8512773392,-7.0540410248,-16.965112234,-0.38606036000000005,3.2876216100000004,4.856297250000001
30,1.5002,71.73203590279999,0.3972085516,-48.6077982964,-0.4080511400000001,9.633183350000001,-0.24312029000000004
31,1.5478,125.671042952,52.0582484856,23.9425829356,-0.37995181000000006,4.201460690000001,-3.7457628600000006
31,1.5478,106.0786115032,-3.8237305148,45.6646264984,1.09465216,-7.695551290000001,-6.990624620000001
31,1.5478,-12.4331062296,-40.2807756484,1.7994025952,0.6658319500000001,-12.049725730000002,-7.470756650000001
31,1.5478,-149.7476239532,-6.2500526312,-40.821553556,-1.2534744600000003,-14.089981430000002,-7.289943570000001
31,1.5478,-53.6279401112,89.3814954004,-1.8329021116,-1.5124769800000002,1.8496689400000004,-3.5197465100000005
31,1.5478,-8.8438723296,44.8749950404,-29.934210726,0.9627074800000002,7.449987580000001,1.8777682700000002
31,1.5478,13.6343031748,86.7015340884,3.2446674455999998,0.26633278000000005,6.763386560000001,3.6419175100000007
31,1.5478,-47.2438894144,19.2765788656,26.5699021504,1.3157816700000002,5.040775460000001,5.038332040000001
31,1.5478,51.182475414,-31.9585386456,8.6333039408,0.7269174500000001,9.200698010000002,3.982774600000001
31,1.5478,142.7701532516,-16.342978358,-31.537401868,0.4043860100000001,8.784094900000001,0.6462845900000002
31,1.5478,44.8127816528,-18.654444989599998,57.5282409492,0.8368713500000001,1.2925691800000003,-2.11111488
31,1.5478,-62.9264487348,24.674786651199998,-7.255038123199999,0.7220306100000001,-5.170276720000001,-4.811093980000001
31,1.5478,29.3886471732,23.7320145468,-15.098710606,-0.28832356000000003,0.28343672000000003,-6.473841290000001
31,1.5478,52.5750981672,41.9174663068,38.1846630508,-0.7806726900000002,-1.14596398,-5.696833730000001
31,1.5478,-40.7545545232,-13.208380752,9.513862657599999,1.1752850200000002,-5.959501380000001,-3.5820537200000007
31,1.5478,-122.6178013144,-15.7399870628,-24.229721647599998,-0.09162825000000001,-2.7745034100000003,1.0445620500000001
31,1.5478,-10.624132344,7.9345997416,40.7689114588,-0.9871416800000001,2.14410105,2.9944112100000004
31,1.5478,65.060846494,9.0879402348,22.1479659856,-0.8820746200000001,3.0677138100000003,5.7615843600000005
31,1.5478,-12.524033488399999,53.8289372096,-54.6616394744,-1.3536546800000002,-5.539233140000001,6.780490500000001
31,1.5478,-104.4562777804,34.1312215664,39.84049629,-0.4495892800000001,-4.781772940000001,7.684555900000001
32,1.5961,-93.85128801719999,-12.782458329199999,2.464607278,-0.41171627000000005,1.5625670900000002,5.265570100000001
32,1.5961,35.9210528712,-0.9140582332,-53.891150597199996,-0.9456035400000001,3.5735017500000006,0.36651300000000003
32,1.5961,117.6024451448,23.4783753512,26.392833277999998,-1.04944889,2.4678542000000006,-2.3200272900000005
32,1.5961,65.8456923068,19.8460706444,-1.8089738856,0.29931895000000003,-6.875783880000001,-5.7493672600000005
32,1.5961,5.4412785924,-30.963124443999998,20.841484846,-0.16737427000000002,-8.763325830000001,-7.116460750000001
32,1.5961,-69.48756830399999,-18.735800958,-13.5050907544,-1.5454631500000002,-8.209891200000001,-6.828137190000001
32,1.5961,-53.374300915599996,40.8646243628,-16.98904046,-1.9584011300000004,-3.5857188500000006,-4.902722230000001
32,1.5961,-16.6827591672,69.80820653239999,-34.2939335032,-1.0518923100000002,4.056077200000001,0.34085709000000003
32,1.5961,-31.178478478,62.0793895344,-21.4779756576,0.6719405000000002,4.057298910000001,2.9919677900000003
32,1.5961,9.020941202,65.8456923068,26.4359040848,0.8185457000000002,8.338170750000002,4.11594099
32,1.5961,-35.5142730292,-9.7005028204,33.8297259188,2.02315176,5.335207570000001,4.745121640000001
32,1.5961,53.2450884952,-47.176890381599996,-27.3882474796,0.7916680800000001,10.274581100000002,2.4886232700000006
32,1.5961,136.3813169096,-7.255038123199999,21.607188078,0.5265570100000001,7.539172410000001,-1.2718001100000003
32,1.5961,12.0454689684,-11.7104738044,17.7643149824,0.7806726900000002,-2.5594824500000004,-3.1935499400000005
32,1.5961,-35.1314214132,31.0684086384,-0.8662017812,0.21013412000000004,-3.8911463500000005,-5.078648470000001
32,1.5961,36.61018578,19.3866487052,-0.38763726119999997,-0.9211693400000002,-0.23701174000000003,-5.271678650000001
32,1.5961,0.6317051664,51.4121863836,25.1342085904,-0.6523931400000001,-4.4409158500000006,-4.594851310000001
32,1.5961,-40.7880540396,-23.7176576112,-12.591032521199999,0.24800713000000005,-3.0726006500000005,-2.6816534500000007
32,1.5961,-31.4129750928,1.0384850084,32.5136734888,-0.8246542500000001,1.6884032200000003,1.6700775700000003
32,1.5961,8.5950187792,5.9294144028,23.8516556768,-1.0506706000000001,-3.1141387900000006,3.7091115600000006
33,1.6435,-7.9058858704,32.4036036492,-22.660030022,-0.9419384100000001,-4.39082574,5.24846616
33,1.6435,-50.6991252488,37.7874544992,-20.7601288776,-0.7073700900000001,-2.2161819400000002,6.628998460000001
33,1.6435,-51.9577499364,14.840285765199999,26.277977793199998,-0.36406958000000006,0.7525733600000001,7.039493020000001
33,1.6435,-41.898323726,-29.8432834672,-0.7274180704,0.07330260000000001,0.5937510600000001,5.485477900000001
33,1.6435,30.62812928,0.1866401628,-26.0961232756,-1.0445620500000001,-2.2186253600000003,0.7501299400000001
33,1.6435,70.2245576648,41.659041466,10.2077812116,-1.1361903000000002,-2.3249141300000002,-2.2174036500000005
33,1.6435,47.746382160399996,10.6528462152,-23.3443772856,0.10751048000000002,-6.450628800000001,-5.992487550000001
33,1.6435,15.730415772399999,-6.5994047308,21.6502588848,-0.9504903800000002,-5.132403710000001,-7.160442310000001
33,1.6435,-24.3876479392,-15.0699967348,-0.7465606512,-1.4538349000000002,-6.661984630000001,-7.241075170000001
33,1.6435,-58.121660954,49.77071008,-22.5978166344,-2.02315176,-6.705966190000001,-4.002321960000001
33,1.6435,-74.249285278,69.6885654024,-46.837109572399996,-0.9419384100000001,0.020769070000000004,1.1496291100000002
33,1.6435,-19.0420822508,54.3314299556,6.1447684368,0.8759660700000002,7.853151880000001,4.02919958
33,1.6435,-5.2019963324,70.899333638,9.7292166916,0.8197674100000001,9.628296510000002,5.285117460000001
33,1.6435,-13.2658084944,-54.1352185024,22.1862511472,2.6706580600000005,7.076144320000001,5.280230620000001
33,1.6435,104.3318510052,-17.2426796556,-15.8931277092,0.5815339600000001,11.302039210000002,2.2931496700000005
33,1.6435,131.3324612236,-19.764714676,23.961725516399998,1.7384933300000003,4.1696962300000004,-1.1972758000000001
33,1.6435,-45.501914561599996,-6.0873406944,14.2516514056,1.5112552700000002,-5.7493672600000005,-3.6138181800000004
33,1.6435,-30.484559924,19.190437252,2.488535504,0.24556371000000005,-2.4739627500000005,-5.431722660000001
33,1.6435,29.5130739484,45.0042074608,-0.334995164,-1.1032041300000002,-2.1123365900000004,-5.661404140000001
33,1.6435,-26.3258342452,46.2101900512,21.6215450136,-0.11361903000000002,-4.372500090000001,-4.431142170000001
34,1.6949,-20.4059911328,-21.1669087196,-20.434705004,0.09040654000000002,0.33719196000000007,-2.4470851300000005
34,1.6949,16.9124701368,-10.6337036344,48.478585876,-0.8442016100000002,2.0121563700000005,2.00849124
34,1.6949,-29.5800729812,7.752745224,1.8568303376,-1.10076071,-6.416420920000001,3.8752641200000006
34,1.6949,-32.2504630028,32.2696055836,-18.3194498256,-0.7757858500000001,-2.6327850500000003,5.503803550000001
34,1.6949,-52.0534628404,21.2626216236,7.0348984439999995,-0.5522129200000001,0.7855595300000001,7.011393690000001
34,1.6949,-31.3651186408,7.3316084464,4.3022950348,-0.8356496400000001,2.0671333200000004,6.481171550000001
34,1.6949,-21.975682758399998,-28.0534521624,-6.2883377928,0.06597234,1.0970955800000002,5.020006390000001
34,1.6949,14.5579326984,20.898912588399998,-33.1740925264,-0.8747443600000001,-0.8063286000000002,0.6181852600000001
34,1.6949,60.8303361372,33.2410915592,17.0225399764,-0.4239333700000001,-0.5167833300000001,-2.3591220100000005
34,1.6949,69.2578573344,26.9240398952,5.6327044004,0.4447024400000001,-5.547785110000001,-6.354113710000001
34,1.6949,8.0973116784,-6.7094745704,11.3850499308,-0.33474854000000004,-4.523992130000001,-6.8037029900000014
34,1.6949,-19.410576931199998,-8.662017812,-14.8498570556,-1.0824350600000001,-6.842797710000001,-7.354694200000001
34,1.6949,-44.0662210016,42.223747599599996,-20.3389921,-1.6859598000000002,-4.450689530000001,-3.0481664500000005
34,1.6949,-95.7464035164,64.8981345572,-40.725840652,-0.29198869000000005,2.2259556200000006,1.7116157100000002
34,1.6949,-21.5736885616,32.757741394,3.5988051904,1.0970955800000002,8.288080640000002,4.476345440000001
34,1.6949,-33.9637239844,62.907306154,5.2354958488,0.6218503900000001,8.131701760000002,5.748145550000001
34,1.6949,23.526231803199998,-65.9366195656,30.570701537599998,1.9412971900000002,10.630098710000002,5.098195830000001
34,1.6949,145.268260046,7.2646094136,-4.5655055207999995,0.048868400000000006,11.135886650000002,1.5320243400000002
34,1.6949,101.1493969472,-36.6723991676,24.5168603596,1.5442414400000002,0.37384326000000007,-1.1056475500000003
34,1.6949,-69.69813669279999,24.0143676136,23.6793724496,0.8637489700000002,-6.089002640000001,-4.37005667
35,1.7405,-10.5954184728,26.5316169888,-40.749768878,0.16493085000000002,-1.7690360800000002,-5.792127110000001
35,1.7405,17.6494594976,58.097732728,11.949756064399999,-0.3726215500000001,-3.7921878400000004,-5.927736920000001
35,1.7405,-5.4699924636,25.8137702088,53.35994398,0.5827556700000001,-2.9455428100000005,-4.414038230000001
35,1.7405,3.9816568063999997,-42.3194605036,-31.0684086384,0.5717602800000001,-1.5564585400000002,-1.8472255200000003
35,1.7405,-19.4919328996,7.5948189324,22.8179563136,-1.4636085800000003,-3.7885227100000005,2.45808052
35,1.7405,-53.5322272072,2.7565316352,-0.7226324252,-0.6743839200000001,-6.157418400000001,4.322409980000001
35,1.7405,-14.2468657604,24.3876479392,-9.9732845968,-0.7672338800000001,1.2742435300000001,5.867873130000001
35,1.7405,-36.7154699744,15.0699967348,30.6568431512,-1.0152410100000002,0.5070096500000001,7.0663706400000015
35,1.7405,-45.7220542408,6.4701923104,2.2540388892,-1.3573198100000001,-0.05742037000000001,6.658319500000001
35,1.7405,-30.9774813796,-21.789042595599998,-44.8941376212,-0.28954527,1.0848784800000002,4.159922550000001
35,1.7405,30.623343634799998,36.7011130388,-25.2586353656,-0.8894048800000002,2.6437804400000005,0.19913873000000004
35,1.7405,70.253271536,34.3561468908,45.2817748824,-0.013438810000000002,-0.4801320300000001,-2.8111547100000003
35,1.7405,73.7085073704,8.781658942,19.8747845156,0.3823952300000001,-6.208730220000001,-6.247824940000001
35,1.7405,-8.3461652288,12.753744458,-2.3641087288,-0.18325650000000002,-7.040714730000001,-6.698635930000001
35,1.7405,-43.0995206712,-15.8835564188,-49.0337207192,-0.41171627000000005,-8.011974180000001,-6.960081870000002
35,1.7405,-37.3854603024,54.4989275376,0.5551348432,-1.3292204800000003,-1.3805323000000003,-2.1660918300000005
35,1.7405,-54.91527867,52.3836723592,-19.3866487052,0.5338872700000001,2.0463642500000003,1.7580406900000003
35,1.7405,-38.4861586984,28.7138712,12.0023981616,0.5448826600000001,4.086619950000001,4.804985430000001
35,1.7405,-57.221959656399996,54.7860662496,-16.4291199716,0.16004401000000001,5.352311510000001,5.630861390000001
35,1.7405,57.8297365968,-55.776694806,17.3910346568,1.5967749700000002,11.460861510000003,4.7891032000000004
36,1.7917,156.7920936876,0.6029912951999999,-9.2458665264,0.17959137000000003,9.0284369,1.2730218200000003
36,1.7917,77.2307422376,-24.808784716799998,58.183874341599996,1.4171836000000002,-2.11722343,-1.3499895500000003
36,1.7917,-67.27660022159999,23.4305188992,11.796615418,0.9908068100000001,-7.694329580000002,-4.703583500000001
36,1.7917,-23.4688040608,26.9001116692,-43.7264401924,0.24067687000000004,-3.3352683000000005,-5.5111338100000005
36,1.7917,0.6843472636,57.097532881199996,21.468404367199998,-0.10873219000000002,-2.8954527000000003,-5.8067876300000005
36,1.7917,-24.239292938,10.7629160548,41.137406139199996,0.8148805700000001,-0.8185457000000002,-3.7824141600000005
36,1.7917,28.077380388399998,-27.4313182864,-32.2408917124,0.23945516000000003,0.7574602000000001,-1.5185855300000002
36,1.7917,5.2354958488,-1.9956140484,33.4851594644,-1.1190863600000003,-3.8251740100000005,2.6902054200000003
36,1.7917,-57.4133854644,9.8871429832,-8.7960158776,-0.5180050400000001,-8.233103690000002,4.286980390000001
36,1.7917,-49.9525645976,21.5784742068,-11.5142623512,-0.5522129200000001,0.6023030300000001,6.211173640000001
36,1.7917,-29.8337121768,19.286150155999998,39.1752916072,-1.1691764700000002,0.8478667400000002,6.588682030000001
36,1.7917,-23.1242376064,1.8568303376,-5.3982077855999995,-1.0665528300000002,-0.16615256000000003,6.278367690000001
36,1.7917,-35.389846254,-27.2877489304,-54.8339227016,0.09162825000000001,-0.10140193000000002,3.9302410700000006
36,1.7917,34.959138186,46.712682797199996,-10.7724873452,-0.7904463700000002,2.4018818600000005,0.24312029000000004
36,1.7917,78.6616501524,35.0117802832,52.0821767116,0.30176237000000006,-1.6163223300000003,-3.0054066000000006
36,1.7917,45.487557626,11.887542676799999,0.1770688724,0.9394949900000001,-7.303382380000001,-6.466511030000001
36,1.7917,-14.385649471199999,-0.4881358104,-4.2975093896,-0.13072297000000002,-5.213036570000001,-6.693749090000001
36,1.7917,-25.2873492368,-0.8470592003999999,-37.782668854,-0.4666932200000001,-4.91616104,-6.369995940000001
36,1.7917,-32.685956716,42.8506671208,-4.8239303615999996,-0.9492686700000001,0.33841367000000006,-1.5662322200000003
36,1.7917,-59.9210635492,55.709695773199996,-16.821542878,0.41049456000000006,2.3236924200000004,2.4959535300000004
37,1.8371,-46.4351153756,23.516660512799998,1.1294122672,0.5363306900000001,4.741456510000001,5.299777980000001
37,1.8371,-33.0305231704,31.6761855788,4.1012979364,0.15637888000000003,6.208730220000001,5.803122500000001
37,1.8371,72.38288365,-42.35296002,4.8670011684,1.17772844,9.849426020000001,4.418925070000001
37,1.8371,148.9579924952,-0.1866401628,7.77667345,0.06841576,7.633244080000002,0.7415779700000001
37,1.8371,53.6805822084,-15.4624196412,50.258845890399996,1.0360100800000003,-1.3732020400000002,-1.8741031400000003
37,1.8371,-39.3906456412,18.400805794,-3.2350961552,0.6719405000000002,-6.642437270000001,-4.9124959100000005
37,1.8371,-35.6099859332,42.4773867952,-55.7575522252,0.2687762,-3.9143588400000007,-5.8067876300000005
37,1.8371,-1.2825529136,44.0135789044,48.3780873268,0.6242938100000001,-2.6828751600000005,-5.690725180000001
37,1.8371,21.41576227,7.992027483999999,36.2321198092,0.8209891200000001,-1.3145599600000002,-3.8764858300000005
37,1.8371,16.0989104528,-36.179477712,-14.897713507599999,0.41171627000000005,-2.3236924200000004,-0.7977766300000001
37,1.8371,-56.0542622276,6.4893348911999995,-23.186450994,-1.2559178800000002,-5.865429710000001,2.9088915100000006
37,1.8371,-58.073804502,6.5276200528,-11.308479607599999,-0.05131182000000001,-2.3151404500000003,4.5227704200000005
37,1.8371,4.618147618,17.2331083652,44.5256429408,-0.5424392400000001,3.9229108100000007,5.930180340000001
37,1.8371,-23.7080863208,21.248264688,45.1669193976,-1.3035645700000003,-1.4538349000000002,6.614337940000001
37,1.8371,-78.1400148256,0.057427742399999995,-48.3637303912,-1.4684954200000002,-0.9358298600000001,6.004704650000001
37,1.8371,-12.7393875224,-5.8719866604,-62.81159325,-0.32863999000000005,3.2387532100000005,3.1373512800000003
37,1.8371,45.5401997232,55.2311312532,11.7870441276,0.05619866000000001,3.964448950000001,-0.30420579000000003
37,1.8371,58.255659019599996,13.5338046256,62.787665024,0.9798114200000002,1.2412573600000003,-3.4879820500000007
37,1.8371,61.658252756799996,32.7720983296,8.1403824852,0.5546563400000001,-3.0945914300000004,-6.082894090000001
37,1.8371,11.7774728372,-21.511475174,5.0392843956,1.2901257600000002,-7.6613434100000015,-6.641215560000001
38,1.8853,-65.491554562,0.143569356,-78.4797956348,0.6487280100000001,-8.03029983,-5.469595670000001
38,1.8853,-68.4682258764,39.4480733836,5.1254260092,0.3872820700000001,4.27965013,-0.9895851000000002
38,1.8853,-27.0676092512,56.082976098799996,10.8490576684,0.7953332100000001,7.3412553900000015,2.4654107800000005
38,1.8853,-19.9657117744,30.7381991196,1.31605243,0.31764460000000005,6.455515640000001,5.402401620000001
38,1.8853,0.0191425808,13.3806639792,-6.867400862,-0.05009011000000001,2.51550089,5.237470770000001
38,1.8853,60.7729083948,-27.1441795744,-15.1752809292,0.42759850000000005,6.030360560000001,4.139153480000001
38,1.8853,133.77314027559999,-11.7152594496,18.324235470799998,0.30664921000000006,7.206867290000001,0.17959137000000003
38,1.8853,59.150574672,0.3780659708,68.123659422,0.4349287600000001,0.07452431000000001,-2.1392142100000004
38,1.8853,-36.634114006,21.4492617864,-12.945170266,1.0140193000000002,-7.5587197700000015,-4.925934720000001
38,1.8853,-49.4883570132,38.6823701516,-46.30111731,0.58886422,-5.369415450000001,-5.495251580000001
38,1.8853,12.399606713199999,44.0183645496,46.4542579564,1.15818108,-2.3859996300000006,-5.1751635600000006
38,1.8853,12.916456394799999,-11.9736842904,27.239892478399998,1.6578604700000004,-2.5924686200000004,-3.1373512800000003
38,1.8853,-3.1537401868,-23.4783753512,-16.9507552984,0.34818735000000006,-3.2106538800000006,-0.38483865000000006
38,1.8853,-50.8857654116,0.9044869428,-27.469603448,-0.8197674100000001,-5.067653080000001,2.8502494300000003
38,1.8853,-63.098731961999995,-2.201396792,-22.0522530816,-0.15637888000000003,-1.2962343100000002,4.4323638800000005
38,1.8853,19.9513548388,32.7912409104,53.6566539824,-0.6817141800000001,5.225253670000001,5.414618720000001
38,1.8853,-23.909083419199998,23.832513096,46.2389039224,-1.1300817500000002,-2.1013412000000002,6.256376910000001
38,1.8853,-94.0474994704,-6.8051874744,-51.594040901199996,-1.2730218200000003,-2.3261358400000005,5.869094840000001
38,1.8853,-21.7411861436,11.4759771896,-67.8700202264,-0.23090319000000004,4.271098160000001,2.8771270500000004
38,1.8853,61.878392436,44.3772879396,25.866412306,0.5974161900000001,6.988181200000001,-0.23334661000000004
39,1.9326,85.5769074664,9.6717889492,61.3854709804,1.4953730400000003,1.7898051500000003,-3.6394740900000007
39,1.9326,48.4020155528,36.7393982004,12.538390424,0.9932502300000001,-4.7854380700000005,-5.595431800000001
39,1.9326,-0.933200814,-36.8111828784,4.9674997176,1.7250545200000003,-8.98689876,-6.251490070000001
39,1.9326,-79.6953495156,7.8149586116,-81.2267559796,0.8429799000000001,-6.156196690000001,-5.045662300000001
39,1.9326,-58.968720154399996,34.6337143124,8.6572321668,1.11419952,5.838552090000001,-0.5815339600000001
39,1.9326,-18.2907359544,57.4085998192,19.2765788656,1.3108948300000003,7.798174930000001,2.8343672000000004
39,1.9326,-4.2927237444,36.3039044872,2.5794627628,0.6731622100000001,5.872759970000001,5.250909580000001
39,1.9326,-3.6705898684,12.4857483268,-19.4392908024,0.13560981000000003,1.4428395100000002,5.136068840000001
39,1.9326,62.050675663199996,-24.7561426196,-8.365307809599999,0.29809724000000004,6.238051260000001,4.076846270000001
39,1.9326,118.3537914412,-18.2428795024,28.6612291028,0.4825754500000001,6.059681600000001,0.34207880000000007
39,1.9326,37.2179627204,-0.014356935599999999,63.5246543848,0.25655910000000004,-0.20524728000000003,-2.1844174800000005
39,1.9326,-31.4369033188,24.7513569744,-16.4482625524,0.5851990900000001,-5.485477900000001,-4.732904540000001
39,1.9326,-7.9585279676,39.1082925744,-50.84748025,0.4495892800000001,-3.9998785400000005,-5.304664820000001
39,1.9326,9.978070242,38.1320209536,35.4999160936,1.2718001100000003,-3.2705176700000007,-4.609511830000001
39,1.9326,-13.304093656,-15.988840613199999,46.535613924799996,1.6981769000000002,-3.7860792900000004,-3.3499288200000006
39,1.9326,-21.6885440464,-23.138594542,-11.00698396,0.23456832000000005,-1.2583613000000002,0.18325650000000002
39,1.9326,-30.62812928,6.3218373092,-24.354148422799998,-1.1313034600000003,-3.7616450900000005,3.0420579000000005
39,1.9326,-39.1752916072,5.2067819775999995,-31.4273320284,-0.42148995000000006,-0.4691366400000001,4.905165650000001
39,1.9326,-3.1058837348,34.025937372,40.6349133932,-0.6694970800000001,4.21856463,6.008369780000001
39,1.9326,-43.1473771232,19.7025012884,45.798624564,-1.2901257600000002,-1.7629275300000002,6.967412130000001
40,1.9815,-73.6462939828,-5.3455656884,-37.3902459476,-1.3206685100000002,0.04031643000000001,6.076785540000001
40,1.9815,-23.9425829356,14.4430772136,-60.1938453256,-0.6792707600000001,4.88317487,2.7806119600000003
40,1.9815,75.36434060959999,36.5096872308,24.8470698784,0.06597234,8.317401680000001,-0.5558780500000001
40,1.9815,111.5151044504,8.446663778,61.586468078799996,1.1899455400000003,1.5601236700000003,-4.0304212900000005
40,1.9815,37.7970257896,15.9984119036,8.9108713624,0.7110352200000001,-6.337009770000001,-5.872759970000001
40,1.9815,-53.024948816,-29.661428949599998,-16.4434769072,1.1850587000000001,-9.923950330000002,-6.727956970000001
40,1.9815,-99.086783866,10.0402836296,-40.692341135599996,0.5754254100000001,-2.9944112100000004,-4.784216360000001
40,1.9815,-16.8981132012,56.8630362664,-4.8239303615999996,0.9822548400000002,7.359581040000001,-0.7989983400000001
40,1.9815,6.1591253724,39.357146124799996,20.2528504864,1.6236525900000003,7.243518590000001,2.9027829600000006
40,1.9815,0.34935209959999997,56.207402873999996,-3.3882368015999997,0.2846584300000001,2.4996186600000003,4.67792759
40,1.9815,-26.1344084372,-1.7659030787999999,-2.6177479244,0.8319845100000002,1.7641492400000003,5.214258280000001
40,1.9815,71.0046178324,-24.9284258468,-14.3138647932,0.20769070000000003,7.1115739100000015,3.5869405600000004
40,1.9815,114.6975585084,-13.2227376876,27.230321187999998,0.4495892800000001,4.815980820000001,-0.15760059
40,1.9815,14.787643668,-5.7858450468,46.803610056,0.1343881,-0.08063286000000001,-2.6364501800000006
40,1.9815,-14.021940436,29.6135724976,-8.9300139432,0.4337070500000001,-4.053633780000001,-5.085978730000001
40,1.9815,17.132609816,31.5517588036,-39.481572899999996,0.006108550000000001,-3.5014208600000005,-5.573441020000001
40,1.9815,-9.1214397512,31.4464746092,20.7074867804,0.63040236,-2.57292126,-5.089643860000001
40,1.9815,-31.8915396128,-20.6069882312,50.5507702476,1.6603038900000002,-1.3035645700000003,-3.1287993100000007
40,1.9815,-40.639699038399996,-14.4574341492,-2.7804598611999998,-0.13194468,0.5485477900000001,0.5338872700000001
40,1.9815,-8.1499537756,8.1786676468,-4.0390845488,-1.0714396700000002,-0.7318042900000001,2.9773072700000003
41,2.0294,-18.2955215996,5.7714881112,-29.2546491076,-0.6340674900000001,-0.13194468,4.779329520000001
41,2.0294,-23.7942279344,25.5888448844,-9.308079914,-0.6670536600000001,2.4140989600000005,5.878868520000001
41,2.0294,-12.8063865552,29.6518576592,62.333028729999995,-1.1129778100000003,0.9113956600000002,6.565469540000001
41,2.0294,-28.1491650664,9.9397850804,-10.796415571199999,-1.2217100000000003,-1.9657313900000004,4.905165650000001
41,2.0294,-44.650069716,6.4989061816,-55.6618393212,-0.7281391600000001,-1.9412971900000002,2.6926488400000004
41,2.0294,20.93719775,23.4065906732,4.2496529376,-0.23823345000000004,1.9131978600000004,-0.5680951500000001
41,2.0294,106.85388602559999,12.346964616,35.1457783488,0.4129379800000001,2.7647297300000004,-4.0182041900000005
41,2.0294,55.9776919044,-7.728816998,17.5441753032,0.7269174500000001,-6.6644280500000015,-6.274702560000001
41,2.0294,-43.022950348,-28.8622262012,-4.3357945512,-0.5864208000000001,-9.542776810000001,-6.327236090000001
41,2.0294,-120.9906819464,3.5030922864,-43.578085191199996,-0.7672338800000001,-4.41525994,-4.425033620000001
41,2.0294,-18.9894401536,32.872596878799996,-20.1044954852,-0.21990780000000004,5.527016040000001,-1.9437406100000003
41,2.0294,22.8705984108,54.3697151172,20.7074867804,0.33719196000000007,7.384015240000001,1.7470453000000004
41,2.0294,2.4071795356,64.7449939108,-9.308079914,0.4337070500000001,5.566110760000001,3.7982963900000004
41,2.0294,22.181465502,43.7264401924,13.1940238164,1.0763265100000001,4.742678220000001,4.45679808
41,2.0294,-22.3346061484,-14.8737852816,-10.600204118,1.23514881,3.0823743300000004,4.360282990000001
41,2.0294,28.0008100652,-36.3852604556,-4.5320060044,0.55343463,5.972940190000001,0.6866010200000001
41,2.0294,89.86484556559999,-14.165509792,35.4520596416,0.00855197,6.4921669400000015,-2.2626069200000005
41,2.0294,58.523655150799996,-5.1780681064,18.5252325692,0.5399958200000001,0.14660520000000002,-4.020647610000001
41,2.0294,-2.129612114,39.098721284,5.3647082692,0.5436609500000001,-6.235607840000001,-5.241135900000001
41,2.0294,-21.5784742068,8.709874264,-17.156538042,0.007330260000000002,-3.1556769300000007,-5.3840759700000005
42,2.0774,-7.4751778024,37.7970257896,17.6542451428,0.029321040000000007,-1.7629275300000002,-4.271098160000001
42,2.0774,-26.751756668,-19.9178553224,7.8771719992,0.36651300000000003,-0.5448826600000001,-1.3463244200000002
42,2.0774,-34.2125775348,4.3405801963999995,8.9682991048,-0.8637489700000002,1.0286798200000002,1.8227913200000003
42,2.0774,-10.073783146,5.9533426288,15.7399870628,-0.8454233200000001,-0.8319845100000002,3.6761253900000006
42,2.0774,-3.5844482548,10.695917022,-10.1168539528,-0.7293608700000002,-0.9871416800000001,4.888061710000001
42,2.0774,-21.540189045199998,40.7114837164,-27.3882474796,-0.6475063000000001,-0.39461233000000007,5.0639879500000005
42,2.0774,-25.220350204,14.979069476,29.4460749156,-0.29687553000000005,2.1331056600000005,5.816561310000001
42,2.0774,-35.117064477599996,5.790630692,-7.0683979604,-0.03298617,-2.5936903300000003,4.229560020000001
42,2.0774,-8.1643107112,0.16271193679999998,-5.8049876276,-0.17836966000000004,-3.7689753500000007,1.5882230000000002
42,2.0774,23.593230836,19.4488620928,-8.1260255496,-0.4288202100000001,-1.7678143700000002,-1.9400754800000004
42,2.0774,94.5930630232,4.7856452,-3.7663027724,-0.10140193000000002,-0.6707187900000001,-4.718244020000001
42,2.0774,23.2725926076,-7.05882667,23.516660512799998,-0.04398156000000001,-6.230721000000001,-5.9094112700000005
42,2.0774,-58.0690188568,-26.4789748916,-11.9784699356,-0.9724811600000002,-7.368133010000001,-6.450628800000001
42,2.0774,-89.8552742752,14.8211431844,-27.168107800399998,-1.4403960900000001,-3.8154003300000006,-3.8887029300000004
42,2.0774,2.0291135648,55.7862660964,-20.0231395168,-0.5913076400000001,2.52160944,-1.0445620500000001
42,2.0774,19.544574996799998,58.38487144,-3.23031051,0.7427996800000001,4.497114510000001,2.7464040800000005
42,2.0774,-11.581261384,47.5310281264,1.1772687192,1.3622066500000003,2.8539145600000007,4.053633780000001
42,2.0774,-12.0454689684,59.5669258044,40.151563228,2.1697569600000004,4.896613680000001,4.506888190000001
42,2.0774,-32.7050992968,-72.69395058799999,-19.7120725788,2.6621060900000004,7.437770480000001,4.052412070000001
42,2.0774,98.0722270836,1.7371892076,-9.1836531388,0.9284996000000002,9.358298600000001,-0.5998596100000001
43,2.1256,103.5517908376,-35.2319199624,18.6018028924,1.5955532600000002,6.369995940000001,-2.31636216
43,2.1256,37.9358095004,15.476776576799999,28.0295239364,1.00424562,-3.3181643600000004,-4.4653500500000005
43,2.1256,-42.7166690552,11.6626173524,8.6715891024,0.6511714300000001,-6.729178680000001,-4.828197920000001
43,2.1256,-32.2121778412,29.6375007236,-8.2695949056,-0.9785897100000002,0.6157418400000001,-4.724352570000001
43,2.1256,-4.761716974,30.1543504052,8.551947972399999,-0.5387741100000001,1.4672737100000002,-3.4794300800000006
43,2.1256,-9.2171526552,-2.6177479244,-8.279166196,-0.16859598000000003,2.1783089300000005,-0.29321040000000004
43,2.1256,-21.7794713052,-4.450650036,43.4249445448,-0.6939312800000002,0.19791702000000003,2.26505034
43,2.1256,-19.50150419,8.0111700648,11.6147609004,-0.6670536600000001,-2.2992582200000005,3.0628269700000006
43,2.1256,-11.7439733208,12.466605745999999,-32.2361060672,-0.16126572000000003,-0.21257754000000004,4.330961950000001
43,2.1256,16.462619488,38.40480273,-20.8319135556,-0.06475063000000002,1.3658717800000002,4.962586020000001
43,2.1256,3.8907295476,2.27318147,37.4763875612,0.9785897100000002,0.6120767100000001,6.043799370000001
43,2.1256,-61.8688211456,-4.5655055207999995,-0.5790630692,0.6267372300000001,-6.146423010000001,3.9839963100000007
43,2.1256,-45.2626323016,7.202396026,-6.891329088,-0.12583613000000002,-4.4445809800000005,1.4330658300000003
43,2.1256,27.0580379608,15.285350768799999,-43.0851637356,-0.34452222000000005,0.14904862000000002,-1.6212091700000002
43,2.1256,106.3705358604,11.533404932,4.9818566531999995,-0.45814125000000006,1.1117561000000002,-4.566751980000001
43,2.1256,24.6269301992,6.4079789228,37.2514622368,0.24312029000000004,-5.3962930700000005,-5.549006820000001
43,2.1256,-66.31468553639999,-30.881768475599998,-10.4853486332,-0.9358298600000001,-5.975383610000001,-6.145201300000001
43,2.1256,-82.7055203464,18.769300474399998,-32.2935338096,-1.5821144500000002,-2.2821542800000003,-3.5747234600000004
43,2.1256,-9.0544407184,41.75475437,-12.337393325599999,-0.40072088000000006,2.5655910000000004,-0.9480469600000001
43,2.1256,30.8578402496,63.864435194,-8.1499537756,0.8710792300000001,4.9039439400000004,2.2381727200000006
44,2.1737,-39.4959298356,45.70291166,19.6833587076,1.9461840300000004,2.7341869800000005,4.5801907900000005
44,2.1737,-4.9866422984,42.041893082,28.1826645828,2.0365905700000004,5.616200870000001,4.500779640000001
44,2.1737,-5.9198431124,-50.2157750836,-9.839286531199999,2.27115889,9.116400020000002,4.137931770000001
44,2.1737,96.8327449768,-11.9210421932,-24.3015063256,1.00424562,8.37115692,0.08185457000000002
44,2.1737,99.23035322199999,-25.3734908504,31.5182592872,1.4465046400000003,3.1312427300000003,-2.0488076700000004
44,2.1737,26.8618265076,-6.508477472,31.460831544799998,0.7452431000000002,-3.886259510000001,-4.35783957
44,2.1737,-45.6694121436,24.4211474556,1.698904046,-0.05375524000000001,-6.8818924300000015,-5.068874790000001
44,2.1737,-22.6073879248,31.1019081548,-12.7968152648,-1.0543357300000002,-0.37139984000000004,-5.172720140000001
44,2.1737,0.0334995164,48.3924442624,-3.2685956716,-0.7941115000000001,1.7299413600000002,-3.4989774400000004
44,2.1737,-23.1050950256,-9.5090770124,8.8008015228,-0.06841576,0.5497695000000001,-1.3560981000000003
44,2.1737,-21.6263306588,-2.2157537276,37.0504651384,-0.43615047000000007,2.2051865500000005,1.3915276900000002
44,2.1737,-6.6376898924,1.1102696864,6.8243300552,-0.10873219000000002,-0.7220306100000001,2.6914271300000006
44,2.1737,7.202396026,4.6612184247999995,-27.8476694188,0.27732817000000004,-1.7128374200000003,3.9974351200000005
44,2.1737,9.0496550732,34.241291406,-21.511475174,0.21624267000000003,-0.45691954000000007,5.215479990000001
44,2.1737,-31.7623271924,1.698904046,27.6418866752,0.8429799000000001,0.5522129200000001,5.950949410000001
44,2.1737,-42.8363101852,-1.627119368,8.8630149104,0.3628478700000001,-0.6279589400000001,4.7280177000000005
44,2.1737,-20.2959212932,0.406779842,6.6233329568,-0.14782691000000003,-2.9284388700000004,2.1734220900000003
44,2.1737,12.1651100984,16.6444740056,-20.7362006516,-0.28588014000000006,-2.8649099500000004,-0.6670536600000001
44,2.1737,56.6285396516,24.2440785832,-20.8749843624,-0.6377326200000001,-1.5955532600000002,-3.5820537200000007
44,2.1737,40.8646243628,-2.0051853388,31.1736928328,0.06230721000000001,-3.3242729100000004,-5.052992560000001
45,2.2223,-30.2979197612,-7.671389255599999,12.5336047788,-0.9675943200000001,-5.358420060000001,-6.238051260000001
45,2.2223,-47.0381066708,-2.727817764,-29.3647189472,-1.3475461300000002,-4.43602901,-5.170276720000001
45,2.2223,-32.9348102664,32.2361060672,-12.9882410728,-0.8148805700000001,-1.1398554300000001,-1.9498491600000003
45,2.2223,27.6897431272,57.025748203199996,-5.7954163372,0.4129379800000001,1.0360100800000003,0.6389543300000001
45,2.2223,-46.9184655408,40.43870194,10.4231352456,1.5613453800000003,-0.7159220600000001,4.18191333
45,2.2223,-29.867211693199998,42.3433887296,9.6143612068,1.6590821800000002,1.8069090900000002,4.158700840000001
45,2.2223,-21.4923325932,-13.682159626799999,15.888342064,2.5924686200000004,10.060781850000001,4.488562540000001
45,2.2223,94.5978486684,-19.3866487052,-43.7072976116,1.6419782400000003,11.879908040000002,1.7629275300000002
45,2.2223,138.04672143919998,-25.6797721432,44.592641973599996,1.9987175600000002,4.657158520000001,-1.3231119300000003
45,2.2223,9.9924271776,-13.663017046,13.873585434799999,1.17161989,-5.219145120000001,-3.2692959600000004
45,2.2223,-60.9308346864,12.5048909076,19.1425808,0.15149204000000002,-6.167192080000001,-4.684036140000001
45,2.2223,-28.1587363568,18.6257311184,-19.1042956384,-1.26080472,1.4098533400000002,-4.652271680000001
45,2.2223,36.6149714252,48.3015170036,12.0741828396,-1.4220704400000002,2.8453625900000006,-4.412816520000001
45,2.2223,-35.77269787,17.9270269192,-7.968099258,-0.4288202100000001,-0.24434200000000003,-1.7861400200000004
45,2.2223,-30.5180594404,1.339980656,13.2035951068,-0.31764460000000005,3.4818735000000007,0.11484074000000002
45,2.2223,22.7318147,-18.2715933736,49.627140724,0.17226111000000002,3.7677536400000005,2.0756852900000005
45,2.2223,28.398018616799998,28.3453765196,-11.533404932,0.21502096000000004,-4.144040320000001,2.9528730700000003
45,2.2223,-32.5950294572,1.1916256548,-31.015766541199998,1.0958738700000001,-5.657739010000001,4.111054150000001
45,2.2223,-31.968109935999998,25.2012076232,-22.7988137328,0.5375524,-1.5198072400000002,4.50566648
45,2.2223,-29.7379992728,-1.55533469,15.0077833472,0.6878227300000002,1.2253751300000002,4.561865140000001
46,2.2704,-7.7671021596,-8.7673020064,39.9697087104,0.19791702000000003,-0.33474854000000004,3.8251740100000005
46,2.2704,15.2374943168,12.131610582,-8.4179499068,-0.4593629600000001,-4.796433460000001,1.1642896300000003
46,2.2704,-14.7445728612,12.6293176828,-44.051864066,-0.5412175300000001,-5.525794330000001,-1.3072297000000002
46,2.2704,42.161534212,32.800812200799996,0.6652046828,-0.9993587800000001,-1.8423386800000003,-3.949788430000001
46,2.2704,3.6275190615999997,-5.000999234,36.777683362,-0.29443211,-2.7647297300000004,-5.197154340000001
46,2.2704,-33.1023078484,-10.839486378,-16.4434769072,-1.9669531000000002,-0.34574393000000003,-5.673621240000001
46,2.2704,14.127224630399999,16.6636165864,-10.4518491168,-1.6199874600000002,-1.4330658300000003,-4.429920460000001
46,2.2704,-18.0849532108,29.723642337199998,-20.9898398472,-0.37873010000000007,-3.6846773600000007,-0.6670536600000001
46,2.2704,-16.4530481976,56.6093970708,-4.5894337468,0.6328457800000001,-1.1972758000000001,2.0097129500000004
46,2.2704,-55.121061413599996,28.3645191004,33.762726885999996,1.5772276100000002,0.35918274000000006,4.703583500000001
46,2.2704,-34.724641571199996,47.3922444156,-7.7240313528,1.5222506600000003,5.085978730000001,4.454354660000001
46,2.2704,12.873385588,-45.367916496,0.6125625856,2.36156543,11.598914740000001,4.0182041900000005
46,2.2704,135.4529017408,-4.0725840652,-18.4630191816,1.3683152000000003,9.743137250000002,0.7037049600000002
46,2.2704,110.91689880039999,-23.760728418,51.345187350799996,1.6016618100000002,0.10873219000000002,-1.3988579500000002
46,2.2704,-31.5039023516,-13.351950108,15.6155602876,0.36895642000000006,-7.884916340000001,-3.6907859100000007
46,2.2704,-71.6123947728,28.9005113628,-8.0733834524,-0.8466450300000001,-3.6553563200000005,-4.523992130000001
46,2.2704,4.115654872,25.5170602064,-16.6827591672,-1.8569992000000004,3.6712385500000004,-4.302862620000001
46,2.2704,30.652057506,43.1282345424,23.6937293852,-1.2693566900000002,1.5039250100000003,-3.2815130600000004
46,2.2704,-51.6562542888,3.9625142256,2.4358934068,-0.31520118,-0.19547360000000003,-0.9908068100000001
46,2.2704,-20.0374964524,8.61416136,27.6036015136,-0.38117352000000004,4.701140080000001,0.6756056300000001
47,2.3184,36.897324492,-22.2628214704,20.4777758108,0.1343881,2.4531936800000005,2.3725608200000003
47,2.3184,13.5768754324,18.7932287004,-23.3970193828,0.20036044000000003,-4.972359700000001,3.5893839800000005
47,2.3184,-12.6436746184,9.427721044,-18.7932287004,0.7721207200000001,-5.205706310000001,4.396934290000001
47,2.3184,-48.6412978128,21.1238379128,4.4841495524,0.17348282000000004,-2.5949120400000005,4.938151820000001
47,2.3184,-50.0387062112,-8.7003029736,1.0432706536,0.18569992000000002,-0.6450628800000001,4.250329090000001
47,2.3184,2.1200408236,-6.197410534,26.0961232756,-0.21379925000000002,0.31764460000000005,3.3487071100000008
47,2.3184,37.4428880448,10.8347007328,0.49770710079999997,-0.6609451100000001,-3.3022821300000005,0.8796312000000002
47,2.3184,-4.4937208428,25.450061173599998,-36.3326183584,-0.8197674100000001,-5.866651420000001,-1.2681349800000001
47,2.3184,20.865413072,23.6028021264,10.0402836296,-0.7085918000000001,-3.8129569100000005,-4.00965222
47,2.3184,-11.758330256399999,7.6283184488,21.6359019492,-0.7330260000000001,-2.4470851300000005,-5.259461550000001
47,2.3184,-28.187450228,-16.582260618,-23.267806962399998,-1.6993986100000003,1.2327053900000002,-5.308329950000001
47,2.3184,37.7395980472,29.527430884,-7.5421768352,-1.3353290300000002,-0.37139984000000004,-4.245442250000001
47,2.3184,-17.5537465936,16.2376941636,-12.8111722004,-0.007330260000000002,-3.5160813800000006,0.33719196000000007
47,2.3184,-55.422557061199996,66.8746060248,0.263210486,0.34330051000000006,-2.52160944,2.7586211800000005
47,2.3184,-44.6883548776,15.960126742,23.9234403548,1.3402158700000002,2.1294405300000006,5.213036570000001
47,2.3184,-28.575087489199998,40.5296291988,-26.857040862399998,1.3903059800000002,6.296693340000001,4.520327000000001
47,2.3184,42.281175342,-45.6024131108,4.18743955,2.0573596400000005,10.099876570000001,3.4733215300000007
47,2.3184,149.7524095984,-6.508477472,18.9942257988,0.9199476300000001,8.1243715,0.05497695000000001
47,2.3184,84.1459995516,-16.8598280396,34.5667152796,1.0775482200000002,-3.0200671200000007,-2.02926031
47,2.3184,-56.1691177124,-11.313265252799999,2.3018953412,-0.00855197,-10.127975900000001,-4.208790950000001
48,2.3663,-86.51489392559999,40.0702072596,-30.4319178268,-1.3487678400000003,-2.7451823700000006,-4.793990040000001
48,2.3663,21.2147651716,30.4079896008,13.868799789599999,-1.5686756400000001,5.315660210000001,-4.404264550000001
48,2.3663,25.316063107999998,31.594829610399998,33.02095188,-0.8869614600000001,1.9510708700000003,-2.7635080200000006
48,2.3663,-35.4089888348,-3.7136606752,-0.7226324252,-0.63040236,0.29809724000000004,-0.8026634700000002
48,2.3663,-9.762716208,9.0975115252,14.0889394688,-0.5290004300000001,2.7024225200000003,0.7989983400000001
48,2.3663,12.6053894568,-17.237894010399998,-5.38385085,0.17348282000000004,-0.18447821000000003,2.5362699600000003
48,2.3663,-18.831513862,15.409777543999999,-24.000010678,0.3261965700000001,-2.3847779200000003,3.9730009200000005
48,2.3663,16.127624324,12.461820100799999,14.0267260812,0.05497695000000001,0.6707187900000001,4.85874067
48,2.3663,-10.9399849272,23.2438787364,19.812571128,-0.18814334000000002,-1.4648302900000003,5.586879830000001
48,2.3663,-47.942593613599996,-6.838686990799999,-16.5918319084,0.08551970000000002,-3.9461233000000004,4.823311080000001
48,2.3663,-24.6077876184,-8.9156570076,1.0671988796,-0.17470453000000002,-3.1849979700000004,2.6706580600000005
48,2.3663,-5.7284173044,14.007583500399999,-5.8002019824,-0.4495892800000001,-2.3200272900000005,0.16126572000000003
48,2.3663,41.405402270399996,27.622744094399998,-8.087740388,-0.7635687500000001,-2.1257754,-2.6413370200000004
48,2.3663,45.0759921388,16.6923304576,23.7894422892,-0.4544761200000001,-3.1715591600000006,-4.5472046200000005
48,2.3663,-27.110680058,11.6865455784,-4.2927237444,-0.7537950700000001,-4.922269590000001,-5.527016040000001
48,2.3663,-41.6686127564,-23.1481658324,-25.378276495599998,-1.3072297000000002,-0.9846982600000002,-5.136068840000001
48,2.3663,-3.1489545415999998,34.1168646308,-11.7535446112,-0.9834765500000001,1.0164627200000003,-3.0102934400000003
48,2.3663,-4.2400816472,25.6941290788,-2.9623143788,0.27488475000000007,1.1984975100000002,0.7085918000000001
48,2.3663,-32.805597846,65.31927133479999,2.0291135648,0.5143399100000001,0.8881831700000001,3.5612846500000006
48,2.3663,-40.7545545232,16.3716922292,17.8935274028,1.3231119300000003,2.8148198400000006,5.699277150000001
49,2.4158,-22.7988137328,21.5784742068,-9.5330052384,1.1911672500000001,6.589903740000001,4.6620453600000005
49,2.4158,63.5964390628,-42.5252432472,-18.233308212,1.5173638200000001,9.83598721,2.7573994700000006
49,2.4158,153.3847143052,-14.1702954372,33.4373030124,0.7867812400000002,6.545922180000001,-0.6426194600000001
49,2.4158,71.7511784836,-5.120640364,28.1826645828,0.8380930600000002,-6.003482940000001,-3.0041848900000003
49,2.4158,-67.9035197428,-6.0155560164,0.2919243572,0.004886840000000001,-11.061362340000002,-4.561865140000001
49,2.4158,-72.2345286488,52.570312522,-31.70489945,-1.4843776500000003,-3.5478458400000004,-5.103082670000001
49,2.4158,4.0199419679999995,26.6704006996,19.5780745132,-0.9028436900000002,3.9693357900000006,-4.736569670000001
49,2.4158,17.2187514296,25.9334113388,20.1906370988,-0.7049266700000001,2.9834158200000003,-2.4238726400000004
49,2.4158,-5.8815579507999995,-6.8482582812,15.285350768799999,-0.4031643000000001,0.8099937300000001,-0.6511714300000001
49,2.4158,-9.8919286284,-9.523433948,3.2111679291999997,-0.5192267500000001,-0.5986379000000001,1.4782691000000003
49,2.4158,-27.7998129668,6.4079789228,-29.9629245972,-0.04398156000000001,-1.7604841100000004,3.0322842200000006
49,2.4158,-25.8568410156,-0.813559684,-10.3274223416,0.49845768000000007,0.9211693400000002,4.334627080000001
49,2.4158,44.3294314876,33.3128762372,24.603001973199998,-0.37873010000000007,4.158700840000001,5.0065675800000005
49,2.4158,-3.3451659948,1.4883356572,31.9106821936,0.4300419200000001,-1.3035645700000003,5.742037000000001
49,2.4158,-53.9294357588,1.651047594,-28.9387965244,-0.17592624000000004,-6.273480850000001,4.5594217200000005
49,2.4158,-39.1896485428,-8.61416136,-4.0534414843999995,0.18936505000000003,-3.1593420600000006,2.6254547900000005
49,2.4158,-4.4315074552,23.282163898,-10.7629160548,-0.17592624000000004,-0.6902661500000001,-0.7085918000000001
49,2.4158,62.6775951844,28.6229439412,9.1740818484,-0.31642289000000007,-0.8429799000000001,-3.5673932000000006
49,2.4158,52.187460906,2.0147566292,29.7044997564,0.22235122000000004,-3.7665319300000006,-5.266791810000001
49,2.4158,-23.5549456744,15.1034962512,-13.7013022076,-0.7452431000000002,-6.638772140000001,-5.805565920000001
50,2.4652,-54.987063348,-22.3106779224,-35.241491252799996,-0.5558780500000001,-3.6895642000000004,-5.040775460000001
50,2.4652,-27.7423852244,40.941194685999996,-5.0679982668,-0.53144385,0.5351089800000001,-2.3750042400000004
50,2.4652,-6.1830535984,40.390845488,-5.192425042,0.5546563400000001,3.3157209400000007,1.4342875400000001
50,2.4652,-27.2686063496,43.956151162,7.4608208668,0.8539752900000002,2.7464040800000005,4.2271166000000004
50,2.4652,-28.8861544272,28.570301844,5.1541398804,1.2754652400000002,3.4122360300000008,5.459821990000001
50,2.4652,2.4837498588,-4.4315074552,11.9210421932,1.7311630700000002,6.9759641000000014,4.875844610000001
50,2.4652,78.293155472,-25.651058272,-25.60320182,1.3389941600000002,8.985677050000001,1.9999392700000003
50,2.4652,134.4335593132,-16.845471104,39.2040054784,0.9456035400000001,4.908830780000001,-1.3255553500000001
50,2.4652,41.8887524356,-11.2031954132,15.8356999668,1.0421186300000003,-6.6766451500000015,-3.7518714100000006
50,2.4652,-76.6851786848,14.3042935028,-4.4315074552,0.1343881,-8.782873190000002,-4.8220893700000005
50,2.4652,-38.179877405599996,40.051064678799996,-24.995424879599998,-0.7708990100000002,-1.9095327300000002,-5.028558360000001
50,2.4652,29.455646206,43.6833693856,26.971896347199998,-0.5583214700000001,2.02926031,-4.626615770000001
50,2.4652,-16.5487611016,3.254238736,1.603191142,-0.12217100000000002,0.13194468,-2.0842372600000005
50,2.4652,-17.8839561124,-0.45942193919999996,7.1306113479999995,-0.5497695000000001,1.3487678400000003,-0.1343881
50,2.4652,0.20578274359999998,-14.9742838308,5.8193445632,-0.18081308000000004,0.3567393200000001,1.9400754800000004
50,2.4652,-15.3954206084,16.941184008,-19.8412849992,0.018325650000000002,-1.9877221700000003,3.5478458400000004
50,2.4652,-27.6466723204,-7.1449682836,-10.030712339199999,0.46180638000000007,0.6328457800000001,4.974803120000001
50,2.4652,38.6584419256,50.8570515404,26.857040862399998,-0.4556978300000001,4.938151820000001,5.585658120000001
50,2.4652,-22.61217357,-20.5878456504,6.4893348911999995,1.0274581100000002,-1.8154610600000003,5.985157290000001
50,2.4652,-54.293144794,18.1184527272,-16.8119715876,-0.06475063000000002,-5.089643860000001,3.994991700000001
51,2.5116,-39.912280968,-21.2386933976,-3.1776684128,0.45325441000000005,-1.3255553500000001,1.9193064100000004
51,2.5116,33.8775823708,41.065621461199996,-2.9001009912,-0.3823952300000001,1.0824350600000001,-1.3732020400000002
51,2.5116,72.717878814,18.4199483748,13.5338046256,-0.09529338000000001,-0.8490884500000001,-3.847164790000001
51,2.5116,30.1687073408,3.6227334164,27.747170869599998,0.37017813000000005,-5.4414963400000005,-5.649187040000001
51,2.5116,-47.0763918324,-4.6468614892,-22.4398903428,-0.6267372300000001,-7.153112050000002,-5.797013950000001
51,2.5116,-54.6616394744,-0.1052841944,-31.274191381999998,-0.33230512000000006,-2.9259954500000003,-4.570417110000001
51,2.5116,-15.0604254444,36.0024088396,-1.938186306,-0.047646690000000005,1.12641662,-1.2974560200000003
51,2.5116,-2.5411776012,57.2793873988,-6.484549246,0.7098135100000001,3.3633676300000004,2.22839904
51,2.5116,-38.4335166012,23.5740882552,15.6538454492,1.2131580300000002,2.1917477400000003,5.0847570200000005
51,2.5116,-12.4331062296,48.138805066799996,3.5988051904,0.8930700100000002,4.180691620000001,5.254574710000001
51,2.5116,6.8147587648,-44.9707079444,3.4025937372,2.0488076700000004,7.381571820000001,4.622950640000001
51,2.5116,108.825571848,-11.4281207376,-18.2285225668,0.8735226500000002,9.089522400000002,0.9431601200000002
51,2.5116,123.4122184176,-12.6149607472,43.525443093999996,1.2742435300000001,1.9913873000000004,-1.9193064100000004
51,2.5116,4.929214556,-14.840285765199999,18.6209454732,1.2241534200000002,-7.856817010000001,-4.060964040000001
51,2.5116,-89.6303489508,36.5336154568,-15.6394885136,-0.12461442000000002,-7.377906690000001,-5.143399100000001
51,2.5116,-15.151352703199999,30.5467733116,-7.6474610296,-0.7085918000000001,0.8319845100000002,-5.3144385000000005
51,2.5116,29.537002174399998,39.9027096776,14.0889394688,-0.4801320300000001,2.7097527800000005,-4.1660311000000005
51,2.5116,-12.8781712332,-6.293123438,-2.4933211492,-0.12339271000000002,-0.020769070000000004,-1.7116157100000002
51,2.5116,-17.5489609484,-8.5040915204,23.952154226,-0.40560772000000006,0.16615256000000003,0.7269174500000001
51,2.5116,-11.954541709599999,-2.4550359876,-6.245266986,-0.19058676000000002,-1.5051467200000002,2.2455029800000004
52,2.5595,-30.843483314,6.3505511804,-14.902499152799999,0.4691366400000001,-1.10076071,4.1696962300000004
52,2.5595,10.2364950828,5.5657053676,-2.8139593776,0.028099330000000006,3.1568986400000005,5.079870180000001
52,2.5595,39.9888512912,50.4933425052,21.8033995312,-0.2687762,2.5997988800000003,5.563667340000001
52,2.5595,-51.3069021892,-22.7940280876,1.1198409768,0.7965549200000002,-4.556978300000001,5.616200870000001
52,2.5595,-59.9737056464,13.830514628,-8.1643107112,-0.16126572000000003,-4.681592720000001,3.3560373700000006
52,2.5595,-30.3074910516,-6.4462640844,-13.749158659599999,0.06719405,-0.27488475000000007,0.9113956600000002
52,2.5595,54.3984289884,36.595828844399996,0.6125625856,-0.5900859300000001,1.5430197300000001,-2.3713391100000005
52,2.5595,85.4524806912,16.7114730384,20.123638065999998,-0.006108550000000001,-0.8319845100000002,-4.614398670000001
52,2.5595,11.0356978312,-1.6462619487999999,18.5013043432,0.07452431000000001,-7.445100740000001,-5.817783020000001
52,2.5595,-66.8411065084,-19.3052927368,-26.1870505344,-0.7696773000000001,-7.242296880000001,-5.607648900000001
52,2.5595,-67.3244566736,15.8787707736,-20.951554685599998,-0.5522129200000001,-1.6590821800000002,-3.6577997400000006
52,2.5595,-6.0442698876,30.1352078244,-7.3124658656,0.16737427000000002,2.9565382000000007,-0.25045055000000005
52,2.5595,17.4149628828,63.0221616388,-1.8520446924,0.5326655600000001,3.8825943800000005,3.0860394600000003
52,2.5595,-35.117064477599996,24.665215360799998,17.0703964284,1.3793105900000002,1.3023428600000002,5.265570100000001
52,2.5595,-7.3028945752,45.9804790816,13.1988094616,1.17772844,4.104945600000001,4.919826170000001
52,2.5595,13.9310131772,-51.0963338004,-18.5491607952,1.9535142900000004,7.464648100000002,3.886259510000001
52,2.5595,114.209422698,-11.7822584824,2.0626130812,0.6694970800000001,7.498855980000001,-0.11972758000000001
52,2.5595,90.32426750479999,-14.9264273788,30.695128312799998,1.0567791500000001,-0.05986379000000001,-2.4348680300000005
52,2.5595,-13.1509530096,-9.8201439504,15.625131578,0.6035247400000001,-6.867231910000001,-4.196573850000001
52,2.5595,-66.04190376,38.7062983776,-15.2279230264,-0.6132984200000001,-4.664488780000001,-4.815980820000001
53,2.6106,-5.9772708547999995,25.7994132732,4.66600407,-0.7818944000000001,1.4489480600000002,-5.068874790000001
53,2.6106,28.9962242668,37.610385626799996,1.2729816232,-0.6853793100000001,2.7830553800000004,-3.4232314200000005
53,2.6106,-18.3098785352,-6.2979090831999995,0.6747759731999999,-0.3885037800000001,0.35063077000000004,-0.6866010200000001
53,2.6106,-2.4502503424,-8.1164542592,42.4103877624,-0.8380930600000002,0.14782691000000003,1.2485876200000001
53,2.6106,-11.4329063828,8.4849489396,-19.788642902,-0.28221501000000004,-2.7268567200000002,2.4654107800000005
53,2.6106,-56.011191420799996,8.25523797,-30.240492018799998,0.47402348000000005,-1.9009807600000004,3.925354230000001
53,2.6106,3.0101708308,1.1772687192,2.488535504,0.37628668000000004,3.1129170800000003,4.06707259
53,2.6106,56.848679330799996,42.884166637199996,31.843683160799998,0.047646690000000005,2.8893441500000003,4.852632120000001
53,2.6106,-32.3126763904,-20.075781614,6.8434726359999996,0.4544761200000001,-4.651049970000001,5.701720570000001
