Packet_ID,Rx_Time_Sec,Acc_X,Acc_Y,Acc_Z,Gyro_X,Gyro_Y,Gyro_Z
0,0.0554,-29.5417878196,-1.5026925928,14.3521499548,-2.2601635000000004,1.0189061400000001,2.2760457300000003
0,0.0554,7.6378897392,33.9158675324,-10.8490576684,-2.4104338300000006,0.06963747,2.13188395
0,0.0554,-7.0923261864,13.902299306,19.2430793492,-1.9180847000000003,-3.3670327600000007,1.3719803300000002
0,0.0554,-45.3392026248,30.221349438,-6.1351971463999995,-3.2851781900000003,1.8826551100000004,0.9944719400000002
0,0.0554,-4.4315074552,1.2059825903999999,16.1659094856,-2.8123764200000005,2.4886232700000006,-0.5717602800000001
0,0.0554,38.5627290216,-33.02095188,-19.5876458036,-2.5130574700000006,2.36156543,-1.5173638200000001
0,0.0554,-6.675975054,-10.284351534799999,20.9754829116,-2.9333257100000005,1.0250146900000001,-0.7696773000000001
0,0.0554,-45.176490688,-0.861416136,-3.6945180944,-2.5631475800000003,-4.991907060000001,-0.6291806500000001
0,0.0554,-54.675996409999996,19.1856516068,-20.2097796796,-2.9773072700000003,-1.5246940800000002,-0.8209891200000001
0,0.0554,25.6558439172,45.6598408532,13.2466659136,-3.0359493500000005,3.3572590800000004,-1.4501697700000002
0,0.0554,18.2524507928,20.7409862968,12.753744458,-2.5985771700000004,0.18936505000000003,-1.2779086600000003
0,0.0554,0.191425808,20.81755662,-4.331008906,-2.7793902500000005,-1.8337867100000003,-1.2730218200000003
0,0.0554,3.062812928,2.8139593776,3.6945180944,-2.3481266200000004,-3.2509703100000005,-2.1758655100000004
0,0.0554,8.6668034572,10.480562987999999,2.8570301844,-2.1734220900000003,-2.7012008100000005,-2.14410105
0,0.0554,27.2829632852,20.4490619396,-13.1222391384,-2.2674937600000002,-1.5075901400000002,-1.3609849400000003
0,0.0554,-17.70688724,23.062024218799998,-0.0334995164,-2.4727410400000003,-0.30298408000000004,-0.04031643000000001
0,0.0554,-36.8590393304,31.8341118704,10.609775408399999,-2.2723806000000004,2.3603437200000004,0.00855197
0,0.0554,-13.232308977999999,-4.5990050371999995,1.746760498,-2.1966345800000004,5.028558360000001,0.7599036200000001
0,0.0554,51.517470578,-11.868400096,-9.93021379,-2.4971752400000002,3.2815130600000004,-0.5864208000000001
0,0.0554,93.32008139999999,4.3357945512,10.3417792772,-2.29192796,3.2888433200000007,-2.1648701200000002
1,0.1145,47.042892316,16.0414827104,-1.2873385588,-1.6651907300000002,0.7941115000000001,-2.4751844600000004
1,0.1145,10.025926693999999,24.4594326172,16.0845535172,-1.8533340700000003,-3.4684346900000005,-3.1630071900000005
1,0.1145,5.8815579507999995,10.0354979844,17.0225399764,-1.8166827700000003,-3.1788894200000004,-2.5509304800000003
1,0.1145,-36.399617391199996,-3.8045879339999997,-29.857640402799998,-1.9913873000000004,-3.919245680000001,-1.0775482200000002
1,0.1145,-23.7320145468,18.8171569264,-8.3318082932,-1.7910268600000003,-0.8674141000000002,0.8649706800000001
1,0.1145,35.605200288,4.3214376156,13.4572343024,-1.4575000300000003,2.3420180700000004,2.3090319000000004
1,0.1145,4.3166519704,10.1838529856,10.6145610536,-1.5833361600000002,-1.3304421900000003,2.51550089
1,0.1145,-28.1539507116,14.773286732399999,-13.619946239199999,-1.5503499900000002,-3.5551761000000006,2.02926031
1,0.1145,20.1284237112,15.2470656072,4.1922251952,-1.2669132700000003,-0.4947925500000001,1.7775880500000003
1,0.1145,20.8558417816,3.4217363179999998,2.99102825,-0.9785897100000002,-1.1801718600000002,1.9742833600000003
1,0.1145,-42.3003179228,7.441678286,-4.9483571368,-1.1655113400000001,-5.093308990000001,1.9449623200000004
1,0.1145,-43.9274372908,3.9290147092,-5.0297131052,-1.4318441200000003,-3.0432796100000004,2.1905260300000005
1,0.1145,-12.610175102,20.1379950016,-1.9812571128,-1.4648302900000003,-1.6932900600000003,2.3579003000000003
1,0.1145,-7.8149586116,44.6165701996,-11.7056881592,-1.3597632300000002,-1.0506706000000001,1.7409367500000004
1,0.1145,-34.1742923732,19.4584333832,25.4309185928,-1.2437007800000002,0.3518524800000001,1.6529736300000002
1,0.1145,-27.062823606,-10.8921284752,-3.8907295476,-1.1752850200000002,-0.20769070000000003,-0.4447024400000001
1,0.1145,48.2584461968,-16.1946233568,-11.270194446,-1.1801718600000002,3.2961735800000005,-1.6688558600000003
1,0.1145,35.6147715784,-20.0374964524,-4.881358104,-1.23514881,0.43737218000000005,-1.7751446300000002
1,0.1145,-65.970119082,-6.9056860235999995,-19.9034983868,-1.3304421900000003,-5.355976640000001,-0.8295410900000001
1,0.1145,-55.834122548399996,12.4283205844,-8.73380249,-1.5332460500000002,-1.5686756400000001,-1.2314836800000002
2,0.1535,5.50349198,48.3063026488,32.1691070344,-1.6786295400000002,2.7720599900000003,-0.9773680000000001
2,0.1535,-1.866401628,23.114666316,7.274180704,-1.4355092500000002,1.2229317100000001,-0.37384326000000007
2,0.1535,1.2394821068,16.9986117504,-36.399617391199996,-1.9009807600000004,2.2357293000000005,-0.46180638000000007
2,0.1535,27.871597644799998,4.2640098732,0.6891329088,-1.5185855300000002,1.3573198100000001,-1.17772844
2,0.1535,21.3631201728,21.6598301752,1.7419748527999999,-1.4562783200000002,-1.8215696100000003,-1.6981769000000002
2,0.1535,-0.6652046828,16.8885419108,16.725829974,-1.4184053100000003,0.5094530700000001,-0.35063077000000004
2,0.1535,4.283152454,22.6983151836,5.8815579507999995,-1.8264564500000002,0.28221501000000004,0.23212490000000005
2,0.1535,-14.5340044724,20.3054925836,-8.0015987744,-1.7800314700000004,-1.1398554300000001,0.29565382000000007
2,0.1535,-61.5625398528,-27.1633221552,-33.2315202688,-1.3267770600000002,1.3560981000000003,0.19913873000000004
2,0.1535,60.29912952,12.370892842,11.5190479964,-2.00482611,7.883694630000002,-1.3402158700000002
2,0.1535,148.570355234,-4.0295132584,33.2315202688,-1.3732020400000002,6.6766451500000015,-2.4165423800000005
2,0.1535,37.165320623199996,31.6235434816,-4.66600407,-1.1936106700000002,-6.488501810000001,-2.5594824500000004
2,0.1535,-65.6925516604,16.8741849752,-9.9110712092,-1.1655113400000001,-9.611192570000002,-2.7366304000000006
2,0.1535,-36.6963273936,15.8117717408,2.416750826,-1.1728416000000002,2.6486672800000006,-1.9571794200000003
2,0.1535,39.266218866,-5.575276658,9.8201439504,-0.9908068100000001,4.630280900000001,-0.44225902000000006
2,0.1535,43.3531598668,11.6578317072,3.3547372852,-1.17161989,-0.33230512000000006,1.1728416000000002
2,0.1535,-37.0073943316,9.5282195932,-0.41156548719999997,-0.8747443600000001,-1.1936106700000002,2.7952724800000004
2,0.1535,-45.8991231132,4.3884366484,-3.8668013216,-0.8307628000000001,1.8179044800000004,2.5814732300000003
2,0.1535,1.43569356,12.8159578456,-7.6426753843999995,-1.3389941600000002,4.615620380000001,2.6535541200000003
2,0.1535,49.8568516936,17.2713935268,37.5625291748,-1.04334034,2.9895243700000007,2.3603437200000004
3,0.2023,4.4315074552,2.9862426048,-6.1447684368,-0.32986170000000004,-0.7696773000000001,2.4531936800000005
3,0.2023,-58.949577573599996,14.4000064068,-8.1403824852,-0.5839773800000001,-1.4819342300000002,2.3798910800000006
3,0.2023,-6.0346985972,-3.5509487384,8.748159425599999,-0.6291806500000001,0.5522129200000001,2.15631815
3,0.2023,-17.0656107832,29.3695045924,-8.3844503904,-0.8820746200000001,-1.6578604700000004,2.0793504200000004
3,0.2023,-25.885554886799998,35.05485109,6.0490555328,-0.7660121700000001,-1.1313034600000003,1.2986777300000003
3,0.2023,-1.2729816232,19.7790716116,33.7340130148,-1.1899455400000003,0.4850188700000001,1.4013013700000003
3,0.2023,-13.170095590399999,-21.6694014656,-1.483550012,-0.8613055500000001,-2.8844573100000006,-0.9541555100000002
3,0.2023,31.94418171,-16.4674051332,-16.8311141684,-1.3182250900000003,1.3194468000000001,-1.7323847800000003
3,0.2023,9.6957171752,-15.9792693228,9.1118684608,-0.9981370700000002,-0.9223910500000001,-1.09465216
3,0.2023,-58.0163767596,4.8526442327999995,-4.0007993872,-0.8674141000000002,-6.596012290000001,-0.6927095700000001
3,0.2023,-60.1890596804,10.839486378,2.440679052,-0.9651509000000001,-1.4929296200000002,-0.8906265900000001
3,0.2023,-14.2325088248,54.3218586652,-1.3016954943999999,-1.4526131900000003,4.950368920000001,-1.0934304500000003
3,0.2023,47.2151755432,8.8917287816,18.2668077284,-0.8942917200000001,4.607068410000001,-0.39094720000000005
3,0.2023,32.5041021984,23.4448758348,-16.5056902948,-0.8698575200000002,-1.4171836000000002,-1.2424790700000001
3,0.2023,-24.7704995552,-3.493520996,8.427521197199999,-0.5241135900000001,-2.7769468300000004,-1.6639690200000004
3,0.2023,14.0602255976,27.0723948964,13.619946239199999,-0.8234325400000001,-0.5436609500000001,-1.9388537700000004
3,0.2023,30.8339120236,21.89432679,-3.9481572899999997,-0.6194069700000001,0.18081308000000004,-0.4605846700000001
3,0.2023,-21.607188078,27.7854560312,-7.6857461912,-0.9016219800000002,-2.7060876500000006,0.19913873000000004
3,0.2023,-38.7972256364,8.3413795836,13.7539443048,-0.6927095700000001,-1.2168231600000001,0.4972359700000001
3,0.2023,-2.967100024,-16.462619488,-4.9674997176,-0.7232523200000002,1.7421584600000002,0.13194468
4,0.2478,73.8712193072,-6.7669023128,6.2356956956,-1.3231119300000003,2.8771270500000004,-1.2803520800000001
4,0.2478,101.1015404952,4.4219361648,9.7962157244,-0.8735226500000002,1.7568189800000003,-2.8416974600000007
4,0.2478,12.6723884896,30.8099837976,-14.23729447,-0.6487280100000001,-4.6168420900000005,-2.6926488400000004
4,0.2478,-28.3740903908,11.2319092844,11.0213408956,-0.4300419200000001,-4.528878970000001,-2.8441408800000003
4,0.2478,-18.6688019252,24.598216328,15.285350768799999,-0.7672338800000001,1.3499895500000003,-2.0830155500000003
4,0.2478,7.393821834,-11.0213408956,3.5318061575999997,-0.16126572000000003,2.4238726400000004,-0.5680951500000001
4,0.2478,22.3537487292,14.897713507599999,-8.0685978072,-0.37628668000000004,1.13252517,1.4501697700000002
4,0.2478,-5.4221360116,5.2689953651999994,-3.0915267992,0.05864208000000001,0.9040654000000001,2.5924686200000004
4,0.2478,-19.0133683796,9.3415794304,-0.574277424,-0.22601635000000003,0.6658319500000001,2.2235122000000005
4,0.2478,-11.1696958968,22.688743893199998,-3.8811582572,-0.46791493000000006,-1.2974560200000003,2.2931496700000005
4,0.2478,30.8147694428,6.532405698,34.21736318,0.30420579000000003,-0.3469656400000001,1.9022024700000004
4,0.2478,11.8157579988,8.949156524,-12.725030586799999,0.16615256000000003,-0.9248344700000002,2.1648701200000002
4,0.2478,-46.4399010208,8.4179499068,-9.6047899164,0.04520327000000001,-5.2362490600000005,1.9474057400000002
4,0.2478,-13.854442854,3.5892339,3.086741154,-0.17348282000000004,-3.3022821300000005,2.15631815
4,0.2478,-14.6584312476,7.3076802204,6.9487568304,-0.23823345000000004,-4.9039439400000004,1.9596228400000004
4,0.2478,-45.8895518228,39.285361446799996,-15.9553410968,-0.9089522400000002,-3.2656308300000005,1.2962343100000002
4,0.2478,-22.6743869576,21.1573374292,28.0103813556,-1.3060079900000001,3.0640486800000004,1.1667330500000002
4,0.2478,2.1152551784,-18.4438766008,-7.159325219199999,-0.4605846700000001,0.4642498000000001,-1.5161421100000003
4,0.2478,39.0652217676,-5.1732824611999995,-7.9345997416,-1.0641094100000001,4.679149300000001,-1.8802116900000003
4,0.2478,10.2317094376,-29.154150558399998,13.1557386548,-0.4508109900000001,1.3976362400000002,-1.4269572800000003
5,0.2966,-48.9188652344,13.4620199476,-10.5236337948,-0.5241135900000001,-3.8263957200000007,-0.8539752900000002
5,0.2966,-68.9994324936,3.206382284,-11.12662509,-0.13927494,0.46791493000000006,-0.8148805700000001
5,0.2966,-0.3541377448,60.9021208152,16.98904046,-1.25469617,5.603983770000001,-0.6059681600000001
5,0.2966,33.332018818,5.3024948815999995,19.7503577404,-0.25533739000000005,3.7616450900000005,-0.13072297000000002
5,0.2966,35.2606338336,28.7234424904,-18.396020148799998,-0.6426194600000001,0.09529338000000001,-0.9456035400000001
5,0.2966,14.3473643096,-1.0001998468,18.0275254684,0.019547360000000003,-2.8197066800000004,-1.4941513300000002
5,0.2966,22.5308176016,30.197421212,25.268206656,-0.06841576,-4.781772940000001,-1.4587217400000003
5,0.2966,-22.750957280799998,11.00698396,-16.3094788416,-0.14049665000000003,-4.35783957,0.15515717000000004
5,0.2966,-34.9543525408,37.165320623199996,-14.1463672112,-0.8735226500000002,-1.1765067300000003,0.16004401000000001
5,0.2966,-14.8881422172,-3.1010980895999998,14.9694981856,-0.22723806000000005,0.9895851000000002,0.6206286800000002
5,0.2966,40.3812741976,-23.282163898,5.8767723056,0.09040654000000002,1.5821144500000002,-0.5412175300000001
5,0.2966,86.5771073132,6.7812592484,16.4195486812,-0.8576404200000002,3.0432796100000004,-1.8386735500000002
5,0.2966,51.7041107408,2.4454646972,11.763115901599999,-0.45325441000000005,0.8710792300000001,-2.3994384400000004
5,0.2966,-36.873396266,29.264220398,-40.19941968,-0.41171627000000005,-2.1502096,-1.9803919100000003
5,0.2966,-29.0871515256,30.74777041,9.7914300792,-0.28099330000000006,1.2974560200000003,-2.3896647600000005
5,0.2966,29.474788786799998,-2.2109680824,34.7820693136,-0.17714795000000003,5.808009340000001,-0.8063286000000002
5,0.2966,36.37090352,7.848458128,9.0735832992,0.06352892000000002,1.9974958500000004,0.5326655600000001
5,0.2966,3.3308090592,2.9527430884,-10.4231352456,0.39949917000000007,-0.13194468,2.3640088500000003
5,0.2966,-36.5001159404,6.5467626336,-4.522434714,0.7122569300000001,-0.07330260000000001,2.2100733900000002
5,0.2966,-12.7728870388,10.6767744412,-6.2883377928,0.23456832000000005,0.21868609000000003,2.01093466
6,0.3439,38.2564477288,16.558332392,21.8991124352,0.07085918000000001,-1.6212091700000002,2.2503898200000005
6,0.3439,25.627130045999998,14.6153604408,25.0432813316,0.6963747000000001,-3.3633676300000004,1.9791702000000004
6,0.3439,-73.3304413996,5.5082776252,-34.0642225336,0.4666932200000001,-4.010873930000001,2.2564983700000005
6,0.3439,-17.113467235199998,7.1880390904,1.9094724348,0.29076698000000006,-0.12461442000000002,1.6969551900000002
6,0.3439,10.6432749248,8.4035929712,15.9409841612,0.34940906000000005,-1.2327053900000002,2.0879023900000004
6,0.3439,-49.8281378224,24.7800708456,2.1822542112,0.14660520000000002,-3.2192058500000007,2.1282188200000003
6,0.3439,-30.5037025048,26.019552952399998,8.0542408716,-0.46302809000000006,2.7244133000000006,1.2889040500000002
6,0.3439,-20.9659116212,3.4504501892,3.2638100264,-0.4691366400000001,3.1678940300000007,0.7623470400000001
6,0.3439,29.991638468399998,-15.1992091552,-28.211378454,-0.32008802000000003,3.7445411500000008,-1.6163223300000003
6,0.3439,39.8931383872,-17.5346040128,25.9716965004,-0.6096332900000001,6.348005160000001,-1.0641094100000001
6,0.3439,0.9714859755999999,-7.5421768352,19.7790716116,-0.11117561000000002,-3.2228709800000006,-1.2192665800000002
6,0.3439,-81.5330372724,3.1680971224,-6.3744794064,-0.25655910000000004,-5.487921320000001,-0.6914878600000001
6,0.3439,-52.9388072024,35.988051904,-21.1908369456,-0.9333864400000002,2.5411568000000004,-1.3292204800000003
6,0.3439,31.719256385599998,33.4564455932,21.8416846928,-0.6572799800000001,5.107969510000001,-0.5900859300000001
6,0.3439,53.3503726896,18.9320124112,7.9011002251999995,-0.22235122000000004,-0.5094530700000001,-0.9284996000000002
6,0.3439,4.6085763276,1.7276179172,8.2169528084,-0.19547360000000003,-4.23444686,-1.5198072400000002
6,0.3439,-3.7040893848,21.2147651716,14.2660083412,-0.28343672000000003,-4.306527750000001,-1.8533340700000003
6,0.3439,31.460831544799998,27.3164628016,0.83748791,0.16981769000000002,-3.0127368600000004,-1.0824350600000001
6,0.3439,-31.9393960648,13.6008036584,-28.0486665172,-0.009773680000000002,-3.1141387900000006,0.36040445000000004
6,0.3439,-54.1687180188,22.3202492128,28.8765831368,-0.5717602800000001,0.12827955000000002,0.5192267500000001
7,0.3931,2.0003996936,-3.5222348672,3.4265219632,0.07574602000000001,3.8202871700000007,0.36040445000000004
7,0.3931,66.448683602,-16.4913333592,2.823530668,-0.03298617,3.732324050000001,-0.6829358900000001
7,0.3931,92.1236701,-0.6173482308,15.4672052864,-0.38606036000000005,3.5185248000000007,-2.4165423800000005
7,0.3931,44.042292775599996,5.5417771416,1.9908284031999999,-0.015882230000000004,0.33841367000000006,-2.4153206700000003
7,0.3931,-42.1280346956,30.5850584732,-5.2019963324,-0.17103940000000004,-4.15259229,-1.9889438800000003
7,0.3931,-38.668013216,22.5356032468,8.9300139432,-0.42026824000000007,0.09284996000000001,-2.0634681900000005
7,0.3931,30.460631698,1.6606188844,22.8083850232,0.014660520000000003,4.635167740000001,-0.7281391600000001
7,0.3931,28.0725947432,12.0311120328,-5.7523455303999995,0.25289397,1.5637888000000002,1.3096731200000002
7,0.3931,16.486547714,5.0057848792,3.23031051,0.6413977500000001,-0.6768273400000001,2.2210687800000004
7,0.3931,-31.1736928328,11.2175523488,2.1966111468,0.6756056300000001,-2.0695767400000005,2.0756852900000005
7,0.3931,-21.1621230744,16.0989104528,-2.6273192148,0.4801320300000001,-2.4568588100000004,2.0280386000000004
7,0.3931,34.1647210828,6.5132631172,13.4141634956,0.7794509800000001,-1.8447821000000002,2.1025629100000005
7,0.3931,-15.5485612548,14.8929278624,-7.465606512,0.6169635500000001,-0.8258759600000002,2.2674937600000002
7,0.3931,-53.6614396276,7.4129644148,2.6033909887999998,0.7745641400000002,0.4544761200000001,2.1135583000000002
7,0.3931,19.932212258,-0.6029912951999999,10.1312108884,0.35307419000000007,0.8539752900000002,2.1587615700000002
7,0.3931,8.5854474888,1.722832272,18.9894401536,0.12094929000000001,-4.905165650000001,2.3236924200000004
7,0.3931,-80.8965464608,38.4957299888,-17.3096786884,-0.4764669000000001,-6.073120410000001,1.2791303700000003
7,0.3931,-47.3252453828,20.2337079056,-6.9487568304,-0.8869614600000001,6.830580610000001,1.2119363200000002
7,0.3931,42.4056021172,-7.5230342544,25.052852622,-0.47891032000000006,4.845301860000001,-0.8380930600000002
7,0.3931,29.4508605608,3.2398818004,-7.1688965096,-0.7916680800000001,1.4196270200000003,-1.6725209900000002
8,0.4411,12.145967517599999,-30.4654173432,30.570701537599998,-0.12583613000000002,0.9908068100000001,-1.4819342300000002
8,0.4411,-25.832912789599998,10.7533447644,-5.455635528,-0.27732817000000004,-4.256437640000001,-0.6963747000000001
8,0.4411,-89.084785398,0.9619146852,-17.898313048,0.05009011000000001,-2.32247071,-0.3567393200000001
8,0.4411,-6.0634124684,46.7270397328,6.6472611827999994,-0.50578794,3.4220097100000006,-0.9749245800000002
8,0.4411,34.7150702808,12.4953196172,29.288148623999998,-0.08307628000000002,2.7183047500000006,-0.7293608700000002
8,0.4411,30.0825657272,30.4654173432,-8.13559684,-0.34452222000000005,0.12339271000000002,-0.7867812400000002
8,0.4411,31.6761855788,0.4450650036,16.4530481976,0.32986170000000004,-2.4238726400000004,-1.6725209900000002
8,0.4411,21.4731900124,28.3023057128,15.4241344796,0.28954527,-5.6797297900000006,-1.2998994400000001
8,0.4411,-46.444686665999996,19.7934285472,-15.7256301272,0.22235122000000004,-5.764027780000001,-0.09895851000000001
8,0.4411,-39.5629288684,27.5748876424,-7.5804619967999995,-0.17103940000000004,1.3218902200000002,0.5595431800000001
8,0.4411,20.2624217768,2.1678972756,22.1192521144,0.22357293000000003,3.4757649500000007,0.6132984200000001
8,0.4411,33.8201546284,-21.822542112,12.8638142976,0.5131182000000001,-0.13805323000000003,-0.32375315000000005
8,0.4411,63.5342256752,0.5120640364,7.0301127988,-0.13072297000000002,1.5906664200000002,-2.0158215000000004
8,0.4411,48.6987255552,4.4219361648,2.7708885708,-0.05131182000000001,2.6327850500000003,-2.2418378500000005
8,0.4411,0.7848458128,29.982067177999998,-9.2697947524,-0.09651509000000001,-1.4929296200000002,-2.4959535300000004
8,0.4411,-23.856441322,17.5537465936,1.172483074,0.11606245000000003,-2.3285792600000006,-2.3994384400000004
8,0.4411,-10.8538433136,8.5710905532,28.9435821696,-0.03420788,3.3987972200000005,-0.9846982600000002
8,0.4411,27.780670386,1.6223337227999999,6.7190458608,0.4874622900000001,3.2045453300000006,0.6475063000000001
8,0.4411,21.3104780756,12.016755097199999,-6.1399827916,0.5228918800000001,0.39216891000000004,2.2662720500000004
8,0.4411,-32.111679292,13.6534457556,-5.7523455303999995,0.8295410900000001,-1.4709388400000003,2.3921081800000006
9,0.4894,-11.868400096,11.8157579988,5.9150574672,0.8270976700000001,-1.6798512500000002,2.4336463200000003
9,0.4894,19.3196496724,11.5429762224,9.7770731436,1.11419952,-2.6437804400000005,2.31636216
9,0.4894,-19.50150419,6.7381884416,2.75174599,0.9590423500000002,-0.23823345000000004,2.6266765000000003
9,0.4894,-25.555345368,13.3806639792,-1.3926227532,0.7574602000000001,-0.17226111000000002,2.1697569600000004
9,0.4894,12.399606713199999,7.4847490928,-2.584248408,0.5607648900000001,-1.5283592100000003,2.13188395
9,0.4894,-9.2985086236,-1.9190437251999999,24.5551455212,0.37506497000000005,-6.576464930000001,1.8179044800000004
9,0.4894,-73.6702222088,38.0315224044,-11.117053799599999,-0.33841367000000006,-4.69869666,0.8576404200000002
9,0.4894,-28.5607305536,14.5387901176,-1.2873385588,-0.8796312000000002,6.9393128000000015,0.8295410900000001
9,0.4894,39.6299279012,-16.175480776,17.4819619156,-0.47768861000000007,2.9540947800000006,-1.6407565300000002
9,0.4894,2.7373890544,-0.7752745223999999,-16.9028988464,-0.7403562600000001,2.9321040000000003,-1.3903059800000002
9,0.4894,28.881368782,-17.5346040128,43.6785837404,0.05986379000000001,2.4531936800000005,-1.5161421100000003
9,0.4894,-48.459443295199996,5.407779076,-2.895315346,0.12583613000000002,-3.9925482800000007,-0.07452431000000001
9,0.4894,-90.7645468632,9.978070242,-24.6269301992,-0.21746438000000004,0.3872820700000001,-0.5424392400000001
9,0.4894,26.206193115199998,47.5980271592,11.0500547668,-0.39949917000000007,6.079228960000001,-0.8136588600000001
9,0.4894,46.4973287632,11.7296163852,15.864413837999999,0.3872820700000001,2.0390339900000005,-0.7562384900000001
9,0.4894,19.7934285472,20.5878456504,7.6857461912,0.10018022000000001,-0.8246542500000001,-0.8454233200000001
9,0.4894,37.8975243388,16.3812635196,24.6987148772,0.41782482000000004,-3.6981161700000005,-1.8313432900000004
9,0.4894,10.8921284752,26.0769806948,17.970097726,0.6132984200000001,-7.0419364400000015,-0.8014417600000001
9,0.4894,-62.261244052,21.3726914632,-34.2030062444,0.39583404000000005,-6.047464500000001,0.11117561000000002
9,0.4894,-26.971896347199998,13.7922294664,7.010970218,-0.09773680000000001,1.2950126000000002,0.7489082300000002
10,0.5371,19.7742859664,0.9619146852,19.6737874172,0.22235122000000004,2.2247339100000003,0.12827955000000002
10,0.5371,50.7804812172,-30.2883484708,13.1509530096,0.5717602800000001,0.5522129200000001,-1.2840172100000002
10,0.5371,77.2211709472,13.4333060764,14.639288666799999,-0.26511107000000006,2.9626467500000007,-2.3542351700000004
10,0.5371,35.485559158,-5.4317073019999995,-6.0394842423999995,0.19913873000000004,1.2986777300000003,-2.3017016400000005
10,0.5371,-44.9802792348,40.342989036,-2.081755662,0.20036044000000003,-2.2296207500000005,-1.8252347400000002
10,0.5371,-34.0067947912,13.9310131772,-7.8771719992,0.41171627000000005,1.6395348200000002,-1.9522925800000004
10,0.5371,31.264620091599998,11.629117835999999,43.2670182532,0.25533739000000005,6.399316980000001,-0.27854988
10,0.5371,33.3033049468,9.5856473356,-3.6227334164,0.61452013,2.7024225200000003,1.8056873800000004
10,0.5371,11.5908326744,10.4709916976,-10.475777342799999,0.8490884500000001,-1.1337468800000001,2.2736023100000002
10,0.5371,-45.6454839176,7.1306113479999995,-1.7180466267999999,1.1227514900000002,-2.5252745700000006,2.1917477400000003
10,0.5371,8.5854474888,16.9938261052,14.8642139912,1.0995390000000003,-2.3322443900000005,1.8887636600000004
10,0.5371,12.993026718,1.2059825903999999,8.4993058752,1.2705784000000002,-1.7482670100000002,2.3383529400000005
10,0.5371,-33.8297259188,17.8408853056,-2.2779671152,0.7770075600000002,-0.8063286000000002,2.2418378500000005
10,0.5371,-7.465606512,4.3357945512,2.4023938904,1.0018022000000002,-0.7892246600000001,2.00482611
10,0.5371,-3.7567314819999997,8.6476608764,-7.7814590952,0.6914878600000001,-2.8807921800000003,2.2051865500000005
10,0.5371,-42.0945351792,14.4622197944,29.929425080799998,0.37139984000000004,-5.202041180000001,1.6370914000000003
10,0.5371,-50.5699128284,30.312276696799998,1.91425808,-0.29076698000000006,2.6193462400000005,1.12030807
10,0.5371,-0.4498506488,-3.7902309983999998,-7.3890361888,-0.27121962000000005,6.6314418800000015,0.13805323000000003
10,0.5371,26.967110702,2.9048866364,-5.5561340772,-0.4043860100000001,3.2130973000000007,-1.5112552700000002
10,0.5371,18.8171569264,-13.256237204,22.2388932444,0.08551970000000002,4.757338740000001,-1.2791303700000003
11,0.5867,14.95514125,-11.0261265408,38.2803759548,0.5399958200000001,0.18569992000000002,-0.7195871900000002
11,0.5867,-90.520478958,-0.5168496816,-7.4512495763999995,0.4337070500000001,-4.192908720000001,-0.10873219000000002
11,0.5867,-49.603212498,22.741385990399998,-25.6079874652,-0.14049665000000003,3.816622040000001,-0.5070096500000001
11,0.5867,65.587267466,51.3212591248,29.5800729812,0.18447821000000003,3.9791094700000005,-0.6316240700000001
11,0.5867,39.816568064,12.7489588128,13.040883169999999,1.4269572800000003,-2.5900252000000004,-0.6939312800000002
11,0.5867,-10.6432749248,13.1318104288,10.0402836296,0.8099937300000001,-3.4830952100000006,-1.1630679200000003
11,0.5867,34.3417899552,21.224336462,20.248064841199998,1.0861001900000002,-3.8715989900000007,-1.8850985300000003
11,0.5867,-4.1539400336,19.1090812836,-18.9894401536,1.2876823400000001,-5.4866996100000005,-0.7244740300000001
11,0.5867,-45.6024131108,22.4829611496,-6.422335858399999,1.2363705200000001,-2.4751844600000004,0.32375315000000005
11,0.5867,-9.93021379,6.4558353747999995,31.4847597708,1.2766869500000002,1.1618462100000002,0.9382732800000002
11,0.5867,32.566315586,0.8805587168,26.775684894,1.2656915600000003,1.0152410100000002,0.22112951000000003
11,0.5867,24.4929321336,-24.808784716799998,-12.4235349392,1.2998994400000001,0.6939312800000002,-0.8710792300000001
11,0.5867,59.7822798384,18.520446923999998,-3.9768711612,0.6682753700000001,4.753673610000001,-2.07446358
11,0.5867,29.9389963712,8.183453292,0.1579262916,1.4599434500000001,2.9357691300000006,-2.2479464000000005
11,0.5867,8.3078800672,28.6803716836,21.4971182384,1.3878625600000003,-1.2424790700000001,-2.7195264600000004
11,0.5867,-15.768700934,5.6757752072,19.62114532,1.5931098400000003,0.3469656400000001,-1.6945117700000003
11,0.5867,-2.7852455064,8.709874264,-3.4217363179999998,1.6884032200000003,1.6505302100000003,0.028099330000000006
11,0.5867,-6.1208402108,12.270394292799999,-16.98904046,1.9669531000000002,0.6487280100000001,1.7189459700000003
11,0.5867,9.7531449176,16.4434769072,5.1828537516,2.1221102700000003,0.18814334000000002,2.1734220900000003
11,0.5867,12.610175102,7.6666036104,17.276179172,2.1550964400000003,-3.4708781100000006,2.1233319800000006
12,0.6349,0.11485548479999999,9.547362174,6.1208402108,2.3236924200000004,-6.069455280000001,2.2125168100000003
12,0.6349,-39.36193177,7.9968131291999995,-10.9974126696,2.1221102700000003,-2.3407963600000006,2.2638286300000003
12,0.6349,-25.0624239124,14.6584312476,3.8237305148,2.3139187400000005,0.9908068100000001,1.6871815100000003
12,0.6349,38.189448696,2.9958138952,10.0594262104,2.3908864700000003,-0.8038851800000001,1.7873617300000002
12,0.6349,-8.638089586,10.0881400816,16.6014031988,1.9388537700000004,-6.916100310000001,2.0524728000000003
12,0.6349,-96.52646368399999,38.5053012792,-14.4382915684,1.3683152000000003,-5.430500950000001,1.7006203200000003
12,0.6349,-59.5669258044,19.2000085424,-0.5168496816,1.0970955800000002,6.855014810000001,1.4379526700000003
12,0.6349,31.3411904148,-23.186450994,25.2777779464,1.6065486500000004,6.429859730000001,-0.7989983400000001
12,0.6349,48.0861629696,4.3836510032,-11.2845513816,0.7708990100000002,4.886840000000001,-1.6786295400000002
12,0.6349,20.9946254924,-20.8031996844,26.5411882792,1.3389941600000002,3.1862196800000007,-1.2705784000000002
12,0.6349,-25.84248408,6.747759732,-5.0823552024,1.6407565300000002,-2.6352284700000004,-0.9321647300000001
12,0.6349,-56.7864659432,0.028713871199999998,-15.5724894808,1.4990381700000002,-2.3530134600000006,-0.9908068100000001
12,0.6349,-14.3521499548,40.5009153276,14.069796887999999,0.9456035400000001,0.48379716000000006,-0.5192267500000001
12,0.6349,8.3078800672,22.9902395408,22.7940280876,1.9608445500000002,0.31886631000000004,-0.4080511400000001
12,0.6349,32.2504630028,19.616359674799998,-12.1124680012,1.8985373400000003,0.6694970800000001,-0.6059681600000001
12,0.6349,29.8528547576,11.8731857412,17.850456596,2.01704321,-1.5747841900000004,-1.2119363200000002
12,0.6349,33.834511563999996,29.804998305599998,10.1024970172,2.1208885600000005,-4.385938900000001,-1.0079107500000002
12,0.6349,-36.8638249756,21.9517545324,-19.9178553224,2.30414506,-5.354754930000001,0.43737218000000005
12,0.6349,-47.25824635,16.0366970652,9.21236701,2.06835503,0.5497695000000001,1.1410771400000002
12,0.6349,14.0123691456,-2.5651058272,20.0422820976,1.8081308000000003,3.732324050000001,1.0103541700000003
13,0.6821,28.4937315208,-19.1425808,7.7336026432,2.09278923,1.3707586200000001,-0.07818944000000001
13,0.6821,66.9463907028,3.23031051,-5.000999234,1.5576802500000002,5.073761630000001,-1.8130176400000002
13,0.6821,67.6881657088,5.2977092364,5.9533426288,2.0561379300000002,4.7072486300000005,-1.9742833600000003
13,0.6821,10.5188481496,45.5689135944,11.2031954132,2.0060478200000005,-3.4806517900000005,-2.8514711400000006
13,0.6821,-35.2175630268,1.2586246876,15.098710606,2.7451823700000006,-3.0762657800000004,-1.8875419500000004
13,0.6821,-34.073793824,3.6083764808,5.647061336,2.5582607400000006,1.5246940800000002,-0.52777872
13,0.6821,31.6761855788,14.4861480204,-0.382851616,2.7708382800000004,2.9479862300000006,1.1728416000000002
13,0.6821,40.6444846836,12.969098492,-0.7848458128,2.9736421400000004,-0.4691366400000001,2.6743231900000004
13,0.6821,-34.6097860864,8.398807326,1.7180466267999999,3.1654506100000006,-4.576525660000001,2.9308822900000004
13,0.6821,-14.2085805988,21.152551784,10.4901342784,2.9956329200000007,-4.168474520000001,2.4971752400000002
13,0.6821,13.619946239199999,5.5369914964,5.4221360116,3.2754045100000004,-1.3365507400000003,2.2845977000000004
13,0.6821,-31.5756870296,11.7679015468,-2.177468566,2.9797506900000004,0.8405364800000001,2.4495285500000006
13,0.6821,-8.489734584799999,4.1060835816,4.4123648744,3.0591618400000007,0.37384326000000007,2.24061614
13,0.6821,-3.0005995404,9.1214397512,-4.7090748768,2.7390738200000007,-2.2259556200000006,2.27115889
13,0.6821,-33.7675125312,14.7302159256,22.7892424424,2.3017016400000005,-5.745702130000001,1.5882230000000002
13,0.6821,-55.513484319999996,28.7952271684,-7.5804619967999995,1.5637888000000002,0.5778688300000001,0.9981370700000002
13,0.6821,-4.7234318124,8.2839518412,-3.1776684128,1.1557376600000002,7.7187637800000015,0.33719196000000007
13,0.6821,39.744783386,-1.6893327556,3.3212377688,1.4232921500000002,2.4397548700000002,-1.8948722100000004
13,0.6821,16.03191142,-20.0709959688,18.2763790188,1.7690360800000002,2.1514313100000004,-1.1227514900000002
13,0.6821,2.1391834043999998,-3.1154550251999997,22.396819536,1.9315235100000003,-2.0207083400000005,-0.5485477900000001
14,0.7309,-94.3202812468,4.9148576204,0.8949156523999999,2.17708722,-5.461043700000001,0.08307628000000002
14,0.7309,-59.389856932,14.706287699599999,-14.5292188272,1.9865004600000002,4.098837050000001,-0.7513516500000001
14,0.7309,71.0141891228,50.6225549256,11.1457676708,1.4550566100000002,6.740174070000001,-0.7892246600000001
14,0.7309,60.3134864556,17.6542451428,31.2071923492,2.5326048300000004,-1.3524329700000002,-0.5778688300000001
14,0.7309,-10.9447705724,-1.1437692028,7.5517481256,2.5374916700000005,-5.903302720000001,-1.2265968400000002
14,0.7309,-16.4339056168,21.7459717888,3.5270205124,2.3652305600000005,-5.443939760000001,-2.01093466
14,0.7309,8.9778703952,13.5146620448,-4.8382872972,2.1160017200000003,-1.5051467200000002,-1.2876823400000001
14,0.7309,-0.5120640364,41.4389017868,3.1537401868,1.9962741400000004,0.14171836000000002,-0.30420579000000003
14,0.7309,9.3032942688,6.7621166676,16.2089802924,2.1660918300000005,-0.6817141800000001,0.50212281
14,0.7309,4.3740797127999995,13.7683012404,13.5003051092,1.6175440400000003,-3.0652703900000007,0.22235122000000004
14,0.7309,-20.8606274268,-38.1463778892,5.3551369788,2.0940109400000004,-1.5173638200000001,-0.44348073000000005
14,0.7309,58.059447566399996,22.884955346399998,-4.881358104,1.0787699300000002,6.042577660000001,-2.2516115300000004
14,0.7309,94.612205604,-13.615160593999999,20.0709959688,2.0268168900000005,6.021808590000001,-1.9620662600000003
14,0.7309,-1.6893327556,35.1792778652,22.7318147,1.8411169700000003,-4.142818610000001,-1.6199874600000002
14,0.7309,-29.503502658,15.730415772399999,-12.6388889732,1.9913873000000004,-4.21001266,-1.6993986100000003
14,0.7309,-27.3882474796,4.9100719752,8.169096356399999,2.29192796,1.8997590500000003,0.047646690000000005
14,0.7309,-4.474578262,25.0624239124,10.9064854108,2.3236924200000004,3.8764858300000005,1.4684954200000002
14,0.7309,24.8470698784,9.322436849599999,6.5467626336,2.7451823700000006,4.031643000000001,2.2662720500000004
14,0.7309,8.542376682,13.428520431199999,1.4261222696,2.5081706300000004,0.5033445200000001,2.3310226800000002
14,0.7309,22.9184548628,8.73380249,-10.0833544364,2.2393944300000004,-3.6981161700000005,2.2149602300000004
15,0.778,-13.8257289828,10.0642118556,13.3902352696,2.9553164900000004,-3.8447213700000007,2.7097527800000005
15,0.778,-74.5747091516,6.3457655352,14.2181518892,2.8392540400000006,0.4447024400000001,2.5704778400000006
15,0.778,1.7659030787999999,3.7519458368,8.7673020064,2.4849581400000003,3.6810122300000008,1.9425189000000003
15,0.778,17.8456709508,16.558332392,2.6416761504,2.1343273700000003,-0.8808529100000001,1.9999392700000003
15,0.778,-28.1252368404,14.447862858799999,4.4362931003999995,2.0903458100000005,-5.611314030000001,1.2156014500000003
15,0.778,-39.72085516,21.4731900124,-7.0348984439999995,1.5454631500000002,0.7415779700000001,0.20402557000000004
15,0.778,2.608176634,-7.8101729664,20.5208466176,0.6499497200000001,6.596012290000001,-0.26755449000000003
15,0.778,14.668002538,15.7112731916,1.9525432416,0.7586819100000001,0.37995181000000006,-1.2754652400000002
15,0.778,-17.611174336,-37.974094662,5.6518469812,1.5821144500000002,1.5491282800000004,-0.5326655600000001
15,0.778,3.062812928,18.0993101464,26.8857547336,1.2754652400000002,-0.23090319000000004,-0.15882230000000003
15,0.778,-48.0909486148,9.2315095908,7.063612315199999,1.6749644100000003,-2.7464040800000005,0.4654715100000001
15,0.778,-58.0881614376,11.030912186,-20.051853387999998,1.4452829300000003,3.3645893400000007,-0.07818944000000001
15,0.778,56.350972229999996,31.8341118704,-3.7040893848,0.5522129200000001,5.4048450400000005,-0.7147003500000001
15,0.778,67.6068097404,21.200408236,41.4724013032,1.7934702800000002,-1.9193064100000004,-1.0018022000000002
15,0.778,-8.1212399044,-0.32542387359999997,6.747759732,1.9840570400000004,-6.418864340000001,-1.6260960100000004
15,0.778,-17.9365982096,21.559331626,-1.0049854919999999,1.3524329700000002,-5.516020650000001,-2.0097129500000004
15,0.778,5.0344987504,14.5435757628,-1.483550012,1.6273177200000002,-2.3566785900000005,-1.6541953400000002
15,0.778,0.2823530668,29.2737916884,-4.7090748768,1.6407565300000002,-1.2375922300000002,-0.6914878600000001
15,0.778,-9.2650091072,15.2614225428,13.328021882,1.6578604700000004,-0.8368713500000001,0.23579003000000004
15,0.778,15.3667067372,16.3238357772,28.0534521624,0.8417581900000002,0.8674141000000002,0.40194259000000004
16,0.8275,-2.0673987264,-24.3972192296,-6.4941205364,1.1911672500000001,-0.49357084000000007,0.05375524000000001
16,0.8275,29.7044997564,4.2448672923999995,-13.3854496244,0.7000398300000001,2.8465843000000004,-1.3597632300000002
16,0.8275,80.4754096832,-9.3942215276,24.1722939052,1.0922087400000002,6.598455710000001,-1.7042854500000002
16,0.8275,34.2030062444,28.9722960408,18.376877568,1.0066890400000001,-0.49357084000000007,-1.6688558600000003
16,0.8275,-15.1896378648,11.0452691216,-0.1962114532,1.2058277700000002,-4.811093980000001,-1.5503499900000002
16,0.8275,-35.2271343172,-2.2444675988,2.6943182476,1.4697171300000003,-0.9956936500000002,-0.5363306900000001
16,0.8275,-15.6203459328,28.3693047456,-1.1820543644,1.3414375800000002,1.3951928200000003,0.8808529100000001
16,0.8275,11.8971139672,13.103096557599999,14.189438017999999,1.9009807600000004,2.5301614100000003,1.8997590500000003
16,0.8275,15.2087804456,20.3916341972,12.131610582,1.5527934100000003,1.0714396700000002,2.0671333200000004
16,0.8275,11.3324078336,5.9485569836,-20.506489681999998,1.3878625600000003,-2.4275377700000003,2.1013412000000002
16,0.8275,29.0440807188,13.232308977999999,2.0482561456,1.5479065700000003,-3.6700168400000006,2.17097867
16,0.8275,-52.3262446168,8.9874416856,26.6369011832,2.2430595600000003,-2.9467645200000003,2.4067687
16,0.8275,-59.8109937096,-7.8771719992,-1.2346964616,2.06835503,1.4477263500000002,2.1294405300000006
16,0.8275,0.0334995164,12.337393325599999,11.8827570316,1.1875021200000002,2.4287594800000005,1.9877221700000003
16,0.8275,-4.2975093896,22.3872482456,-8.2600236152,1.2192665800000002,-1.7018420300000003,1.3316639000000001
16,0.8275,-7.2454668328,20.2959212932,6.6855463444,1.1056475500000003,-1.3157816700000002,0.31275776000000005
16,0.8275,-18.5108756336,1.9094724348,-11.1696958968,-0.06230721000000001,3.8703772800000005,-0.27121962000000005
16,0.8275,14.7206446352,5.8289158536,20.4394906492,-0.4459241500000001,2.7757251200000006,-1.0066890400000001
16,0.8275,-6.4749779556,-16.213765937599998,12.5718899404,0.7256957400000001,-1.3047862800000003,-1.0482271800000003
16,0.8275,-45.9948360172,-5.9437713383999995,-1.3591232368,0.5998596100000001,-0.8429799000000001,-0.15149204000000002
17,0.8755,-13.2035951068,2.7900311516,31.604400900799998,0.8820746200000001,-0.6487280100000001,0.037873010000000006
17,0.8755,-31.3029052532,29.9772815328,-8.5615192628,1.0103541700000003,1.4184053100000003,0.015882230000000004
17,0.8755,27.0293240896,21.6263306588,-8.360522164399999,1.0005804900000002,2.9821941100000005,-1.3683152000000003
17,0.8755,44.2145760028,19.8221424184,8.8151584584,0.5180050400000001,0.7366911300000001,-1.1496291100000002
17,0.8755,9.4899344316,10.6624175056,34.4662167304,1.1667330500000002,-4.955255760000001,-1.4135184700000003
17,0.8755,-27.550959416399998,2.8618158296,-12.8303147812,1.3047862800000003,-6.789042470000001,-2.02926031
17,0.8755,-15.218351735999999,10.3657075032,-10.7581304096,0.8918483000000001,-1.8667728800000003,-2.1233319800000006
17,0.8755,28.584658779599998,31.2694057368,1.2299108163999999,0.5949727700000002,2.5753646800000003,-1.4245138600000002
17,0.8755,39.1657203168,26.033909888,35.3754893184,1.5210289500000003,0.6572799800000001,-0.3872820700000001
17,0.8755,-2.4693929232,10.1312108884,-9.6717889492,1.04334034,-3.6700168400000006,0.06719405
17,0.8755,-46.396830214,14.8450714104,17.324035624,0.06230721000000001,-1.9241932500000003,0.32130973000000007
17,0.8755,-17.5058901416,-24.6173589088,-15.4289201248,0.25533739000000005,3.3816932800000004,-0.39216891000000004
17,0.8755,96.3876799732,4.5559342304,-8.9682991048,-0.0012217100000000002,8.393147700000002,-1.9535142900000004
17,0.8755,105.36076472319999,-2.536391956,45.200418914,0.4508109900000001,4.37005667,-1.8521123600000002
17,0.8755,9.475577496,21.6119737232,23.2630213172,0.6413977500000001,-7.467091520000001,-2.3786693700000003
17,0.8755,-38.04587934,1.1198409768,-19.099509993199998,1.0763265100000001,-5.111634640000001,-1.0726613800000002
17,0.8755,-60.6724098456,12.0023981616,-12.7633157484,0.8393147700000001,-0.8161022800000002,0.036651300000000005
17,0.8755,-23.377876802,31.647471707599998,15.0460685088,1.17161989,1.9058676000000003,1.1691764700000002
17,0.8755,34.1599354376,7.7814590952,15.2566368976,1.3866408500000003,5.530681170000001,2.2931496700000005
17,0.8755,39.8835670968,19.6020027392,-8.0542408716,0.5106747800000001,0.9565989300000002,2.1624267
18,0.9261,27.1250369936,10.456634762,-5.5657053676,0.6780490500000002,-4.553313170000001,1.8484472300000003
18,0.9261,-25.6702008528,7.9776705484,5.647061336,1.4904862000000003,-5.276565490000001,1.7604841100000004
18,0.9261,-67.1091026396,0.6891329088,11.1457676708,1.3878625600000003,-0.28588014000000006,1.8472255200000003
18,0.9261,-18.4821617624,1.2634103328,15.5629181904,0.9321647300000001,3.3120558100000004,1.8618860400000004
18,0.9261,-5.8049876276,15.2566368976,-6.7381884416,0.8258759600000002,-0.14538349000000003,1.8887636600000004
18,0.9261,-21.104695332,25.052852622,-15.9744836776,0.8698575200000002,-1.2192665800000002,1.1691764700000002
18,0.9261,-2.4454646972,26.2636208576,11.8492575152,0.4080511400000001,2.8343672000000004,0.52167017
18,0.9261,16.979469169599998,5.2307102036,18.9702975728,-0.33963538000000004,3.1116953700000005,-0.4239333700000001
18,0.9261,-20.4203480684,-16.1132673884,17.7260298208,0.10873219000000002,-2.4483068400000003,-1.1105343900000002
18,0.9261,-33.3033049468,-34.3465756004,-28.7665132972,0.22845977000000003,0.9394949900000001,-1.2950126000000002
18,0.9261,6.1447684368,12.9978123632,24.1531513244,0.22357293000000003,2.6523324100000005,-0.30176237000000006
18,0.9261,-22.9615256696,14.3377930192,6.8434726359999996,0.7208089000000001,-3.4134577400000006,-0.41782482000000004
18,0.9261,-37.7730975636,21.5784742068,-2.3641087288,0.7073700900000001,0.3310834100000001,-1.0470054700000002
18,0.9261,30.561130247199998,28.316662648399998,-8.8821574912,-0.18081308000000004,4.7072486300000005,-1.5931098400000003
18,0.9261,54.4702136664,25.3112774628,23.9952250328,0.38606036000000005,-0.7647904600000002,-1.02379298
18,0.9261,-11.102696864,-4.4458643908,-1.8089738856,1.13252517,-6.481171550000001,-1.6163223300000003
18,0.9261,-41.0991209776,11.8827570316,6.2117674696,0.5815339600000001,-3.7579799600000006,-1.8973156300000003
18,0.9261,16.295121906,11.4711915444,0.0526420972,0.23579003000000004,1.5295809200000003,-1.7152808400000004
18,0.9261,47.13860522,39.7734972572,-0.3302095188,0.32008802000000003,2.8380323300000003,-0.5925293500000001
18,0.9261,6.8865434428,16.2568367444,11.9306134836,0.9309430200000002,-1.2815737900000002,0.0
19,0.9709,-25.2729923012,7.561319416,9.2219383004,0.31153605000000006,-2.9687553000000007,0.45203270000000007
19,0.9709,-41.7451830796,-2.5507488916,-0.014356935599999999,0.026877620000000005,0.38972549000000006,0.030542750000000004
19,0.9709,45.4588437548,-13.2705941396,-9.2171526552,-0.18692163000000003,7.085918000000001,-1.3560981000000003
19,0.9709,130.5571867012,4.1491543883999995,10.4374921812,-0.17348282000000004,7.930119610000001,-2.3004799300000003
19,0.9709,65.60162440159999,18.7262296676,24.9044976208,0.4654715100000001,-3.7726404800000006,-2.3175838700000004
19,0.9709,-43.7264401924,8.3078800672,13.9118705964,0.6426194600000001,-8.99056389,-1.4990381700000002
19,0.9709,-82.863446638,-5.479563754,-17.9796690164,0.6792707600000001,-1.7250545200000003,-0.3933906200000001
19,0.9709,-18.9176554756,27.5461737712,2.249253244,0.3775083900000001,3.0212888300000005,0.6389543300000001
19,0.9709,45.875194887199996,15.577275126,11.8827570316,1.1496291100000002,4.588742760000001,2.0280386000000004
19,0.9709,28.6325152316,17.659030788,8.7003029736,1.0799916400000003,1.1691764700000002,2.6205679500000003
19,0.9709,-4.6564327796,10.3322079868,-12.8925281688,0.6279589400000001,-3.4635478500000008,1.9364103500000003
19,0.9709,14.2181518892,10.8969141204,4.7808595548,0.5106747800000001,-3.0432796100000004,1.3133382500000002
19,0.9709,-12.7920296196,8.748159425599999,10.9016997656,1.0787699300000002,-2.05980306,1.5796710300000003
19,0.9709,-50.033920566,-4.5080777784,-11.6674029976,1.0567791500000001,-0.6291806500000001,1.6444216600000003
19,0.9709,-13.940584467599999,-0.11485548479999999,20.319849519199998,0.6548365600000001,1.3243336400000003,1.8521123600000002
19,0.9709,-11.0213408956,16.3477640032,-10.667203150799999,0.7293608700000002,-1.3023428600000002,1.9217498300000002
19,0.9709,-28.4937315208,21.4492617864,-5.9102718219999995,0.6572799800000001,-0.8417581900000002,1.4587217400000003
19,0.9709,-1.3591232368,26.1918361796,11.3563360596,0.07941115000000001,3.0029631800000005,0.6743839200000001
19,0.9709,15.1800665744,8.8821574912,18.6688019252,-0.26022423000000006,2.3542351700000004,-0.24678542000000003
19,0.9709,-26.871397798,-23.5645169648,-6.5994047308,0.3054275000000001,-2.9382125500000007,-1.1642896300000003
20,1.0211,0.8422735552,-16.5726893276,-9.1740818484,-0.17226111000000002,2.0903458100000005,-1.4061882100000003
20,1.0211,2.4358934068,2.249253244,14.447862858799999,0.13683152,1.6774078300000004,-0.18325650000000002
20,1.0211,-43.477586642,9.0640120088,1.1868400096,0.3567393200000001,-5.583214700000001,-0.57298199
20,1.0211,-31.4991167064,20.81755662,3.1250263156,0.17714795000000003,0.21135583000000002,-0.8832963300000002
20,1.0211,22.7653142164,27.426532641199998,2.368894374,-0.12217100000000002,4.367613250000001,-1.22904026
20,1.0211,42.6353130868,23.1290232516,9.499505722,0.13194468,0.21257754000000004,-0.6157418400000001
20,1.0211,-18.2907359544,-1.4883356572,-10.4231352456,0.4398156000000001,-4.574082240000001,-1.0702179600000001
20,1.0211,-40.9842654928,12.275179937999999,6.8530439264,0.24434200000000003,-2.40066015,-1.6224308800000002
20,1.0211,16.941184008,3.9290147092,15.280565123599999,0.5338872700000001,1.4013013700000003,-1.6822946700000003
20,1.0211,63.6203672888,18.9320124112,-2.1918255016,0.33963538000000004,1.6016618100000002,-1.10076071
20,1.0211,-5.1493542352,21.540189045199998,-8.0733834524,0.08674141000000002,-2.6523324100000005,-0.41049456000000006
20,1.0211,-47.373101834799996,26.6225442476,4.1730826144,0.32741828000000006,-1.5747841900000004,-0.15760059
20,1.0211,-10.284351534799999,1.339980656,5.9437713383999995,0.21990780000000004,3.5930491100000004,0.8991785600000002
20,1.0211,28.618158296,-11.7056881592,11.5860470292,0.012217100000000002,2.0463642500000003,-0.05009011000000001
20,1.0211,51.637111708,-3.6131621259999998,3.1393832512,-0.1343881,2.01704321,-1.5124769800000002
20,1.0211,86.22775521359999,1.8233308212,-6.8865434428,0.10140193000000002,2.8038244500000005,-2.30414506
20,1.0211,32.3796754232,16.366906584,6.0586268232,0.31886631000000004,-3.7909661300000006,-2.0268168900000005
20,1.0211,-48.655654748399996,19.161723380799998,19.8747845156,0.27488475000000007,-5.585658120000001,-1.8398952600000003
20,1.0211,-24.6843579416,6.22133876,1.1102696864,0.5326655600000001,-0.31153605000000006,-1.5136986900000002
20,1.0211,9.4468636248,10.4614204072,-4.283152454,0.3310834100000001,2.2931496700000005,0.46791493000000006
21,1.0669,28.9866529764,9.384650237199999,1.3304093656,0.7220306100000001,1.7006203200000003,2.0451425400000005
21,1.0669,8.7768732968,12.461820100799999,10.576275892,0.9944719400000002,-0.23456832000000005,2.14410105
21,1.0669,-39.0700074128,5.02492746,6.5611195692,1.0604442800000002,-1.5686756400000001,1.7189459700000003
21,1.0669,13.0743826864,13.036097524799999,-16.773686426,0.07574602000000001,2.2125168100000003,1.5246940800000002
21,1.0669,59.46164161,15.3332072208,4.6085763276,0.14049665000000003,1.09465216,1.4379526700000003
21,1.0669,-15.668202384799999,1.8376877567999998,16.8885419108,1.2058277700000002,-5.3962930700000005,1.04944889
21,1.0669,-89.82656040399999,2.3641087288,-21.7555430792,0.4385938900000001,-2.9443211000000007,1.3658717800000002
21,1.0669,-1.6175480776,-1.91425808,29.2115783008,0.4385938900000001,3.6883424900000006,1.7470453000000004
21,1.0669,26.3784763424,11.3946212212,-4.3405801963999995,0.3567393200000001,0.3261965700000001,2.2027431300000004
21,1.0669,-39.9744943556,9.1788674936,-18.520446923999998,0.6523931400000001,-3.2717393800000005,2.3603437200000004
21,1.0669,-32.9683097828,29.934210726,11.0691973476,-0.014660520000000003,-0.029321040000000007,1.4391743800000003
21,1.0669,8.2408810344,27.5940302232,25.3256343984,-0.09040654000000002,3.3609242100000007,1.4147401800000001
21,1.0669,-19.099509993199998,-25.1150660096,-12.3852497776,0.30176237000000006,-1.4807125200000002,-0.27488475000000007
21,1.0669,7.1258257028,17.3048930432,-18.8506564428,-0.7782292700000001,2.0329254400000005,-1.5711190600000002
21,1.0669,35.8061973864,-31.5039023516,13.0313118796,0.30664921000000006,3.4317833900000005,-1.4342875400000001
21,1.0669,7.7431739336,1.698904046,1.67497582,0.16859598000000003,-4.410373100000001,-1.1313034600000003
21,1.0669,-87.6825913544,2.7661029256,7.8341011923999995,0.13805323000000003,-5.840995510000001,-0.7391345500000002
21,1.0669,-48.8805800728,33.355947044,-2.3306092123999997,-0.3518524800000001,2.1025629100000005,-1.0127975900000001
21,1.0669,24.9284258468,25.2969205272,-2.5028924396,-0.18569992000000002,5.127516870000001,-0.21379925000000002
21,1.0669,39.0317222512,16.596617553599998,-7.0396840892,-0.08551970000000002,1.6358696900000003,-0.33230512000000006
22,1.1152,-5.7284173044,5.790630692,20.865413072,0.23090319000000004,-2.6327850500000003,-1.0323449500000001
22,1.1152,-21.1716943648,8.877371845999999,7.7623165144,0.10384535000000002,-1.3732020400000002,-1.4513914800000003
22,1.1152,43.094735026,13.2275233328,-1.3686945272,0.10018022000000001,1.8020222500000003,-1.3780888800000002
22,1.1152,32.5998151024,18.262022083199998,-1.2251251712,0.24189858000000003,-1.2363705200000001,-0.48379716000000006
22,1.1152,-50.1583473412,18.2715933736,-16.1132673884,0.26144594000000004,-4.385938900000001,-0.21502096000000004
22,1.1152,-37.7730975636,16.5296185208,17.4484623992,0.039094720000000006,2.3517917500000003,0.5070096500000001
22,1.1152,22.3872482456,-11.5238336416,16.2376941636,-0.04031643000000001,4.0511903600000005,0.5131182000000001
22,1.1152,59.3802856416,-0.3302095188,-1.2873385588,-0.09284996000000001,1.5698973500000002,-1.0983172900000002
22,1.1152,72.119673164,-0.24885355039999998,-5.9629139192,0.16126572000000003,1.2278185500000003,-2.10500633
22,1.1152,22.923240508,7.5996045776,7.4177500599999995,0.11117561000000002,-1.3646500700000002,-1.5466848600000003
22,1.1152,-27.6275297396,21.9996109844,2.8139593776,-0.046424980000000005,-2.1135583000000002,-1.4122967600000003
22,1.1152,-14.5340044724,21.6263306588,-3.0101708308,-0.26022423000000006,-0.9358298600000001,-1.9376320600000003
22,1.1152,19.0660104768,9.7196454012,9.8201439504,-0.009773680000000002,2.5631475800000003,-0.5204484600000001
22,1.1152,46.2724034388,6.149554082,5.8289158536,0.4654715100000001,2.8331454900000006,1.1300817500000002
22,1.1152,21.89432679,-1.3782658176,12.7106736512,0.5998596100000001,-1.3854191400000002,2.1306622400000004
22,1.1152,-59.9067066136,7.4321069956,-2.9527430884,0.6536148500000001,-4.459241500000001,1.5503499900000002
22,1.1152,-42.1088921148,5.38385085,-4.7856452,0.5436609500000001,1.8582209100000002,1.5967749700000002
22,1.1152,68.8271492664,16.8837562656,-16.2376941636,-0.24067687000000004,5.198376050000001,2.1502096
22,1.1152,73.4309399488,18.716658377199998,35.3276328664,0.4031643000000001,-3.4000189300000008,1.6603038900000002
22,1.1152,-79.585279676,-0.7465606512,-3.972085516,0.8063286000000002,-9.201919720000001,1.6224308800000002
23,1.164,-91.2813965448,3.9194434188,-24.5790737472,0.036651300000000005,-0.6059681600000001,1.6273177200000002
23,1.164,34.3417899552,5.2929235912,24.7465713292,0.14171836000000002,5.092087280000001,1.8777682700000002
23,1.164,29.919853790399998,8.2839518412,-0.6652046828,0.41171627000000005,-1.0616659900000003,2.2161819400000002
23,1.164,-48.646083458,4.1012979364,-13.9932265648,0.42271166000000004,-4.464128340000001,2.5301614100000003
23,1.164,-50.096133953599995,41.108692268,13.428520431199999,-0.43248534000000005,-0.21135583000000002,2.2271773300000004
23,1.164,-14.964712540399999,8.3174513576,12.7489588128,0.27244133000000004,3.5270767700000007,1.6309828500000003
23,1.164,-2.5507488916,-8.8917287816,-15.457633996,0.14294007000000003,2.35545688,-0.16737427000000002
23,1.164,52.5894551028,2.0147566292,-1.3926227532,-0.4495892800000001,2.9333257100000005,-1.6908466400000002
23,1.164,43.836510032,-16.3094788416,11.1361963804,0.16370914000000003,-0.25778081,-1.5039250100000003
23,1.164,-40.9555516216,-5.4317073019999995,-9.0113699116,0.31520118,-7.792066380000001,-1.6908466400000002
23,1.164,-107.8110150656,5.6279187552,2.727817764,-0.06230721000000001,-4.746343350000001,-1.2192665800000002
23,1.164,-30.2165637928,36.9403952988,3.637090352,-0.41049456000000006,4.07440285,-1.0763265100000001
23,1.164,34.9256386696,23.6267303524,2.1726829208,-0.05497695000000001,5.000459030000001,-0.19791702000000003
23,1.164,33.6861565628,14.4191489876,-10.8777715396,-0.16370914000000003,0.6585016900000001,-0.35918274000000006
23,1.164,-2.0243279196,6.1639110176,19.6498591912,0.18936505000000003,-2.5203877300000004,-1.0335666600000002
23,1.164,-15.7639152888,8.5088771656,1.2873385588,0.04398156000000001,-2.2088516800000004,-1.5271375000000003
23,1.164,26.632115538,13.2897367204,-7.0348984439999995,-0.07330260000000001,1.2156014500000003,-1.6419782400000003
23,1.164,14.7350015708,12.7346018772,4.929214556,0.17592624000000004,0.6267372300000001,-0.8344279300000002
23,1.164,-12.6771741348,26.6129729572,-5.8289158536,0.15027033000000004,-2.9357691300000006,-0.5070096500000001
23,1.164,-27.1633221552,15.663416739599999,2.5459632464,0.039094720000000006,0.6023030300000001,0.48379716000000006
24,1.212,-17.7260298208,-18.7549435388,15.3044933496,-0.21502096000000004,3.0396144800000005,0.6108550000000001
24,1.212,54.5467839896,8.6428752312,-5.2019963324,-0.4129379800000001,3.6223701500000005,-1.2241534200000002
24,1.212,92.0423141316,-2.9527430884,-5.6183474648,0.019547360000000003,3.2179841400000004,-2.01459979
24,1.212,42.664026958,14.7589297968,20.2337079056,-0.07330260000000001,-2.3151404500000003,-2.11722343
24,1.212,-33.188449462,29.3647189472,-6.2883377928,-0.14660520000000002,-4.393269160000001,-1.7128374200000003
24,1.212,-27.809384257199998,14.8259288296,-2.297109696,-0.14171836000000002,-0.20524728000000003,-2.1575398600000004
24,1.212,22.1144664692,-0.2727817764,6.34097989,0.01710394,3.5185248000000007,-0.8075503100000001
24,1.212,51.3595442864,10.0833544364,15.768700934,0.26022423000000006,1.6212091700000002,0.7953332100000001
24,1.212,6.3553368256,1.0576275892,-0.3445664544,0.39949917000000007,-2.22839904,2.1379925
24,1.212,-51.1968323496,2.0626130812,1.5696916256,0.4300419200000001,-2.4324246100000004,1.7274979400000003
24,1.212,-33.2745910756,11.198409768,-5.4317073019999995,0.40072088000000006,2.1917477400000003,1.7421584600000002
24,1.212,56.518469812,10.6193466988,-13.3328075272,-0.18692163000000003,4.8013203,1.9913873000000004
24,1.212,69.2865712056,21.1334092032,30.8626258948,0.15882230000000003,-2.3859996300000006,1.6175440400000003
24,1.212,-57.4803844972,2.5555345367999998,-0.3206382284,0.7562384900000001,-7.792066380000001,1.3524329700000002
24,1.212,-81.0401158168,4.5320060044,-27.541388126,0.12094929000000001,-1.4403960900000001,1.4904862000000003
24,1.212,19.0755817672,4.522434714,20.2002083892,0.009773680000000002,3.7482062800000007,1.7006203200000003
24,1.212,27.3882474796,7.7623165144,3.7758740628,0.25900252000000007,-1.2510310400000002,1.9547360000000003
24,1.212,-40.1802770992,2.2779671152,-14.883356572,0.3616261600000001,-4.096393630000001,2.6266765000000003
24,1.212,-56.724252555599996,41.0895496872,13.4524486572,-0.4691366400000001,-0.7232523200000002,2.4800713000000005
24,1.212,-20.1092811304,12.9403846208,12.8590286524,0.18081308000000004,3.2277578200000003,1.7067288700000003
25,1.2599,-10.7389878288,-2.2923240508,-16.9603265888,0.26266765000000003,2.3188055800000003,0.20402557000000004
25,1.2599,59.4329277388,-3.6610185779999997,3.397808092,-0.31275776000000005,3.5197465100000005,-1.6884032200000003
25,1.2599,54.8243514112,-11.4664058992,8.0015987744,0.20280386000000003,0.5180050400000001,-1.6529736300000002
25,1.2599,-37.0983215904,-13.8257289828,-9.839286531199999,0.4960142600000001,-7.818944000000001,-1.8643294600000002
25,1.2599,-113.826571082,4.9148576204,-3.6466616424,0.025655910000000004,-5.733485030000001,-1.4367309600000002
25,1.2599,-37.7060985308,33.5808723684,2.8570301844,-0.43737218000000005,3.9473450100000007,-1.3108948300000003
25,1.2599,31.977681226399998,22.679172602799998,11.9736842904,0.07941115000000001,5.467152250000001,-0.33352683000000005
25,1.2599,32.0973223564,20.1906370988,-11.370692995199999,-0.25167226000000004,1.3744237500000003,-0.5009011000000001
25,1.2599,0.4642075844,16.558332392,15.2614225428,0.01710394,-1.8423386800000003,-1.0592225700000002
25,1.2599,-14.9503556048,0.5838487144,4.6516471344,0.24189858000000003,-2.5875817800000003,-1.6505302100000003
25,1.2599,23.617159062,13.7539443048,-8.1930245824,-0.19058676000000002,0.5180050400000001,-2.0463642500000003
25,1.2599,19.38186306,10.6193466988,1.1150553316,0.046424980000000005,1.4171836000000002,-0.9223910500000001
25,1.2599,-7.479963447599999,21.1429804936,1.5361921092,0.22723806000000005,-3.0225105400000003,-0.5754254100000001
25,1.2599,-15.0460685088,19.5541462872,-8.4562350684,0.17836966000000004,-1.7372716200000002,0.18936505000000003
25,1.2599,-38.333018052,-11.6243321908,17.941383854799998,-0.18325650000000002,2.06224648,0.8258759600000002
25,1.2599,39.5581432232,5.26420972,-7.5278198996,-0.5143399100000001,4.405486260000001,-1.0958738700000001
25,1.2599,104.231352456,1.5649059804,-6.2883377928,-0.1343881,4.4983362200000006,-1.8362301300000003
25,1.2599,49.8042095964,9.0831545896,17.8073857892,-0.05742037000000001,-2.7134179100000004,-2.1489878900000003
25,1.2599,-32.0542515496,32.7242418776,2.1152551784,-0.25778081,-5.812896180000001,-1.9693965200000003
25,1.2599,-29.474788786799998,16.9220414272,-14.3952207616,-0.20402557000000004,-0.8026634700000002,-2.1795306400000003
26,1.308,12.490533972,0.0334995164,4.618147618,-0.036651300000000005,3.9754443400000006,-1.4330658300000003
26,1.308,56.6237540064,6.9918276372,11.84447187,0.020769070000000004,2.6694363500000002,0.04153814000000001
26,1.308,24.603001973199998,1.028913718,5.120640364,0.36040445000000004,-2.0439208300000002,1.7226111000000002
26,1.308,-50.1392047604,3.0963124444,0.981057266,0.14049665000000003,-3.0554967100000003,1.9180847000000003
26,1.308,-50.7134821844,8.106882968799999,-4.1826539047999995,0.11850587000000001,0.9895851000000002,1.8288998700000003
26,1.308,25.674986498,6.005984725999999,-14.711073344799999,-0.21502096000000004,5.821448150000001,2.2845977000000004
26,1.308,81.308111948,22.7318147,23.0333103476,-0.24800713000000005,1.9193064100000004,2.0512510900000005
26,1.308,-13.663017046,4.3453658416,9.2889373332,0.4923491300000001,-6.104884870000001,1.7580406900000003
26,1.308,-72.7848778468,6.7286171512,-15.1034962512,0.10751048000000002,-4.14892716,1.6322045600000004
26,1.308,-15.802200450399999,5.1062834284,0.8997012976,-0.14171836000000002,1.7433801700000002,1.8203479000000002
26,1.308,21.1956225908,12.2177521956,2.5986053436,-0.07574602000000001,0.18081308000000004,1.7152808400000004
26,1.308,-15.3188502852,-3.2255248648,-4.091726646,0.23701174000000003,-1.8142393500000003,2.5509304800000003
26,1.308,-40.8071966204,35.241491252799996,8.9204426528,-0.39949917000000007,-1.8215696100000003,2.6095725600000006
26,1.308,-34.6337143124,18.687944506,9.2267239456,-0.10751048000000002,0.07818944000000001,2.25283324
26,1.308,-34.6672138288,-4.06779842,-15.1800665744,0.09895851000000001,1.3793105900000002,0.6768273400000001
26,1.308,44.396430520399996,-4.0151563228,0.143569356,-0.17226111000000002,5.137290550000001,-1.1875021200000002
26,1.308,83.6578637412,-1.5170495284,12.8829568784,0.0,2.6156811100000006,-1.7030637400000004
26,1.308,-8.6763747476,-21.6741871108,6.9056860235999995,0.6841576000000001,-7.457317840000001,-2.08668068
26,1.308,-124.1827072948,8.949156524,-15.7064875464,0.23701174000000003,-7.3082692200000015,-1.5161421100000003
26,1.308,-68.3964411984,29.1876500748,-5.1302116544,-0.18325650000000002,2.9956329200000007,-1.4379526700000003
27,1.356,30.38884702,22.4398903428,13.8927280156,0.018325650000000002,7.390123790000001,-0.32741828000000006
27,1.356,56.494541586,25.3734908504,4.5990050371999995,-0.05497695000000001,1.5051467200000002,-0.36040445000000004
27,1.356,-1.8568303376,10.121639598,1.6414763036,0.29076698000000006,-2.9858592400000004,-0.7721207200000001
27,1.356,-38.270804664399996,3.1633114771999997,1.6941184007999999,0.14171836000000002,-2.25283324,-1.3426592900000003
27,1.356,11.504691060799999,11.0165552504,-5.6614182716,-0.05742037000000001,1.5014815900000003,-2.11722343
27,1.356,42.2141763092,15.1274244772,1.507478238,0.06352892000000002,2.5020620800000004,-1.5136986900000002
27,1.356,12.873385588,11.4568346088,11.581261384,0.33841367000000006,-3.1715591600000006,-0.7208089000000001
27,1.356,-29.024938138,25.2012076232,-6.5132631172,0.21502096000000004,-4.098837050000001,0.31764460000000005
27,1.356,-53.766723821999996,-7.1976103808,0.765703232,-0.13072297000000002,-0.38606036000000005,0.8368713500000001
27,1.356,11.9210421932,-5.2689953651999994,-7.0779692508,-0.43126363000000006,4.2723198700000005,-0.6487280100000001
27,1.356,99.5988479024,7.7814590952,1.2969098492,-0.24312029000000004,6.548365600000001,-1.7360499100000002
27,1.356,88.2090123264,0.9667003304,13.9692983388,0.05742037000000001,-0.06597234,-1.9400754800000004
27,1.356,2.1104695332,32.5041021984,10.4709916976,-0.11972758000000001,-6.953973320000001,-2.0390339900000005
27,1.356,-71.449682836,19.0085827344,-13.619946239199999,0.10506706000000002,-5.572219310000001,-1.7702577900000003
27,1.356,-16.1371956144,26.589044731199998,-5.958128274,-0.21379925000000002,3.0359493500000005,-2.1624267
27,1.356,70.8131920244,-8.0590265168,7.8101729664,0.3359702500000001,6.708409610000001,-0.4899057100000001
27,1.356,61.6343245308,2.2157537276,15.5007048028,0.22601635000000003,-0.57298199,0.6377326200000001
27,1.356,-31.1449789616,-4.522434714,-9.2554378168,0.16615256000000003,-5.272900360000001,1.5271375000000003
27,1.356,-64.48656907,-0.24885355039999998,-6.1639110176,0.025655910000000004,-2.1392142100000004,1.2998994400000001
27,1.356,-8.4849489396,11.1696958968,-3.086741154,-0.015882230000000004,4.621728930000001,2.0207083400000005
28,1.4067,62.0171761468,12.725030586799999,14.773286732399999,0.04520327000000001,4.5594217200000005,2.09278923
28,1.4067,23.6745868044,19.1234382192,10.667203150799999,0.13560981000000003,-2.0317037300000003,1.9865004600000002
28,1.4067,-33.7340130148,7.345965382,-15.4193488344,0.10995390000000002,-4.36639154,1.5576802500000002
28,1.4067,-30.7286278292,5.7954163372,-1.2011969452,0.28221501000000004,-1.5149204000000003,1.7323847800000003
28,1.4067,-3.9816568063999997,4.0199419679999995,8.6285182956,0.10262364000000002,0.27121962000000005,1.6908466400000002
28,1.4067,4.0965122912,8.997012976,-1.7563317884,-0.07452431000000001,-2.1367707900000004,1.6260960100000004
28,1.4067,-21.6359019492,-1.3830514628,-2.4358934068,-0.018325650000000002,-1.8203479000000002,2.47029762
28,1.4067,-35.1936348008,26.9240398952,-6.8626152168,-0.22112951000000003,-0.07452431000000001,2.8380323300000003
28,1.4067,-29.3790758828,21.032910654,11.7774728372,0.17470453000000002,0.6988181200000001,2.45808052
28,1.4067,-32.9156676856,0.2201396792,4.6372901988,0.20402557000000004,1.2718001100000003,1.3548763900000003
28,1.4067,22.4398903428,-1.0049854919999999,-3.5844482548,-0.11239732000000002,3.6101530500000005,-0.43615047000000007
28,1.4067,79.992059518,3.6323047068,-10.9160567012,0.10140193000000002,2.4800713000000005,-2.1526530200000003
28,1.4067,26.981467637599998,-15.1369957676,15.170495284,0.7281391600000001,-4.578969080000001,-2.5448219300000003
28,1.4067,-90.0227718572,-0.3684946804,-5.9533426288,0.5424392400000001,-8.685136390000002,-2.3200272900000005
28,1.4067,-98.3354375696,11.7535446112,-2.8139593776,-0.006108550000000001,-1.0347883700000002,-1.3426592900000003
28,1.4067,-11.308479607599999,30.3984183104,4.7330031028,-0.09651509000000001,5.299777980000001,-0.8246542500000001
28,1.4067,33.6574426916,22.1479659856,-4.4075792292,0.10140193000000002,4.233225150000001,-0.20036044000000003
28,1.4067,30.4414891172,20.93719775,3.9098721284,0.06597234,1.4428395100000002,-0.4190465300000001
28,1.4067,-7.5421768352,5.4843493992,10.7533447644,0.34330051000000006,-1.6859598000000002,-1.0518923100000002
28,1.4067,-11.748758966,3.8045879339999997,-2.8139593776,0.12827955000000002,-1.1789501500000001,-1.9755050700000003
29,1.4531,24.9475684276,18.041882404,-4.3405801963999995,-0.004886840000000001,1.6187657500000003,-2.0255951800000003
29,1.4531,20.4729901656,4.9244289108,1.363908882,0.42759850000000005,0.15637888000000003,-1.0421186300000003
29,1.4531,-12.586246876,25.7419855308,-5.38385085,0.33841367000000006,-2.0854589700000004,-0.24678542000000003
29,1.4531,-30.5515589568,13.165309945199999,12.0215407424,0.14171836000000002,-1.0958738700000001,0.5522129200000001
29,1.4531,-15.7543439984,-15.07478238,-5.1876393968,-0.29565382000000007,1.1178646500000002,-0.013438810000000002
29,1.4531,78.436724828,9.901499918799999,-4.163511324,-0.5070096500000001,5.070096500000001,-1.4477263500000002
29,1.4531,76.737820782,1.7754743692,-0.7465606512,-0.15637888000000003,1.4208487300000003,-1.7812531800000002
29,1.4531,26.9144686048,12.2799655832,16.6109744892,-0.05131182000000001,-4.624172350000001,-2.1221102700000003
29,1.4531,-56.580683199599996,28.2257353896,-3.0053851856,-0.26511107000000006,-4.693809820000001,-1.4061882100000003
29,1.4531,-25.2634210108,22.8083850232,-7.824529902,-0.29076698000000006,-0.14294007000000003,-1.9950524300000003
29,1.4531,55.5230556104,7.8580294184,-3.8620156764,-0.13927494,4.989463640000001,-1.25469617
29,1.4531,59.6387104824,5.7523455303999995,11.9976125164,0.22235122000000004,2.3114753200000004,0.26633278000000005
29,1.4531,12.4761770364,-15.2039948004,5.048855686,0.28343672000000003,-3.3768064400000006,0.9737028700000001
29,1.4531,-54.819565766,5.0201418148,-4.0869410008,-0.27732817000000004,-3.6736819700000005,1.2571395900000002
29,1.4531,-38.76372612,8.063812162,-12.4091780036,-0.15637888000000003,1.6138789100000002,1.4281789900000001
29,1.4531,26.656043764,9.8297152408,7.8676007087999995,0.0012217100000000002,5.942397440000001,2.4238726400000004
29,1.4531,48.4498720048,19.3770774148,11.7104738044,-0.12950126000000003,1.7323847800000003,2.2002997100000004
29,1.4531,-15.1848522196,3.9816568063999997,-0.49770710079999997,-0.06475063000000002,-3.3132775200000006,1.9474057400000002
29,1.4531,-34.992637702399996,12.1603244532,-9.968498951599999,-0.2846584300000001,-2.2833759900000006,1.6847380900000002
29,1.4531,-12.720244941599999,8.1547394208,7.8436724828,0.12461442000000002,0.7122569300000001,1.8704380100000002
30,1.5007,15.6394885136,3.8380874503999998,0.3158525832,-0.039094720000000006,-0.8698575200000002,1.7360499100000002
30,1.5007,-3.7375889012,3.9481572899999997,1.5744772707999999,-0.17959137000000003,-3.0591618400000007,2.10500633
30,1.5007,-44.6548553612,20.4059911328,-2.2348963083999998,-0.15149204000000002,-2.01459979,2.7867205100000003
30,1.5007,-49.5505704008,27.8380981284,1.1389835576,0.08674141000000002,0.07208089000000001,2.8795704700000004
30,1.5007,-33.7483699504,-3.7088750299999997,0.7274180704,0.19425189000000004,1.4428395100000002,1.7543755600000004
30,1.5007,12.0646115492,1.6223337227999999,1.9956140484,-0.25411568000000007,3.5356287400000004,0.05009011000000001
30,1.5007,78.0969440188,10.2460663732,-6.436692794,-0.12827955000000002,2.8453625900000006,-1.9608445500000002
30,1.5007,46.4255440852,-9.0352981376,14.5627183436,0.5338872700000001,-2.8184849700000005,-2.5778081000000004
30,1.5007,-64.223358584,-11.700902514,-3.5557343836,0.5106747800000001,-7.831161100000001,-2.8575796900000006
30,1.5007,-118.1192948264,12.1842526792,-1.651047594,0.19913873000000004,-2.8429191700000005,-1.8081308000000003
30,1.5007,-39.7782829024,28.7330137808,-8.7290168448,-0.23212490000000005,5.077426760000001,-1.0824350600000001
30,1.5007,49.2155752368,15.170495284,9.4372923344,0.20891241000000002,5.624752840000001,-0.32497486000000003
30,1.5007,39.5916427396,34.3035047936,4.378865358,0.07330260000000001,1.3658717800000002,-0.4801320300000001
30,1.5007,-9.2458665264,1.0671988796,2.9288148624,0.33841367000000006,-1.7824748900000003,-1.1300817500000002
30,1.5007,-1.124626622,14.902499152799999,0.47377887479999997,-0.0012217100000000002,-0.6682753700000001,-2.16853525
30,1.5007,17.5250327224,21.0281250088,3.5700913192,0.04398156000000001,0.5961944800000001,-1.8704380100000002
30,1.5007,7.1880390904,9.1214397512,-3.7950166436,0.35796103000000007,-1.4819342300000002,-0.9016219800000002
30,1.5007,-19.2909358012,32.9635241376,2.5172493752,0.17103940000000004,-2.2601635000000004,0.15760059
30,1.5007,-47.2869602212,-25.4739893996,3.9385859996,0.30054066000000007,-1.3218902200000002,0.7733424300000001
30,1.5007,34.9495668956,7.0923261864,-8.207381518,-0.5644300200000001,3.3316031700000006,-1.0457837600000002
31,1.5496,107.49516248239999,2.4071795356,9.4660062056,-0.39583404000000005,6.269815720000001,-1.7592624000000003
31,1.5496,66.2764003748,11.9306134836,2.8426732487999997,-0.003665130000000001,-2.3126970300000003,-2.3701174000000003
31,1.5496,-29.8959255644,26.177479244,-0.0669990328,-0.036651300000000005,-6.753612880000001,-2.0072695300000003
31,1.5496,-73.3830834968,31.274191381999998,-2.8091737324,-0.14416178000000002,-2.8258152300000003,-2.0378122800000003
31,1.5496,28.3597334552,23.0524529284,-0.0765703232,-0.35063077000000004,4.886840000000001,-1.9645096800000004
31,1.5496,74.1631436644,-6.5036918268,-1.028913718,0.20402557000000004,6.263707170000001,-0.4593629600000001
31,1.5496,39.0221509608,-5.6374900456,14.1463672112,0.22845977000000003,-1.0262364000000002,0.7537950700000001
31,1.5496,-23.7894422892,-6.4031932776,-5.4508498828,0.12339271000000002,-5.167833300000001,1.1948323800000002
31,1.5496,-64.63970971639999,5.192425042,-8.6524465216,-0.12705784000000003,-2.0793504200000004,1.2265968400000002
31,1.5496,7.5517481256,11.8349005796,3.445664544,-0.20158215000000004,4.676705880000001,1.8960939200000002
31,1.5496,48.2105897448,16.409977390799998,12.653245908799999,0.08185457000000002,3.1104736600000007,2.5594824500000004
31,1.5496,-8.0829547428,13.7060878528,-5.8528440796,-0.006108550000000001,-3.605266210000001,2.11966685
31,1.5496,-19.1234382192,10.504491214,-3.0484559924,-0.020769070000000004,-2.8197066800000004,1.7311630700000002
31,1.5496,-8.4801632944,10.121639598,9.1262253964,0.27854988,-1.4355092500000002,1.9034241800000002
31,1.5496,1.842473402,5.0775695571999995,-8.4562350684,0.03420788,-2.3383529400000005,2.04147741
31,1.5496,-15.5868464164,7.671389255599999,2.321037922,0.035429590000000004,-2.2479464000000005,2.0426991200000004
31,1.5496,-43.6067990624,17.2426796556,-3.6801611588,0.08796312000000002,-0.4251550800000001,2.3969950200000003
31,1.5496,-31.896325258,20.4969183916,2.321037922,0.30909263000000003,0.7953332100000001,2.9650901700000003
31,1.5496,-33.4995164,1.6127624324,1.531406464,0.19791702000000003,0.5986379000000001,1.8679945900000003
31,1.5496,-4.5990050371999995,-2.3832513096,-8.470592004,0.024434200000000003,3.0005197600000004,0.0024434200000000004
32,1.5969,71.641108644,8.73380249,-6.3553368256,-0.08185457000000002,3.8874812200000006,-2.0561379300000002
32,1.5969,66.687965862,-3.9481572899999997,21.5689029164,0.6096332900000001,-0.9688160300000002,-2.7830553800000004
32,1.5969,-38.5866572476,-16.2329085184,0.5599204884,0.65605827,-8.224551720000001,-2.9308822900000004
32,1.5969,-123.8907829376,18.654444989599998,-13.619946239199999,0.048868400000000006,-6.6314418800000015,-2.08668068
32,1.5969,-73.9286470496,23.425733254,-8.2648092604,0.036651300000000005,2.7317435600000004,-0.7244740300000001
32,1.5969,42.3338174392,16.1084817432,7.2885376395999995,0.25533739000000005,6.585016900000001,-0.4349287600000001
32,1.5969,51.56532703,36.0646222272,7.6091758679999995,-0.09407167000000001,2.8209283900000006,-0.34452222000000005
32,1.5969,7.010970218,3.2877382524,8.4179499068,0.20280386000000003,-1.5552368300000003,-1.0897653200000001
32,1.5969,6.3696937612,17.7643149824,-9.738787982,-0.04031643000000001,-1.9950524300000003,-1.9474057400000002
32,1.5969,-9.327222494799999,14.2468657604,-2.5986053436,0.10751048000000002,-0.5228918800000001,-1.5210289500000003
32,1.5969,-3.6993037396,15.242279962,2.0530417908,-0.0024434200000000004,-0.020769070000000004,-0.7635687500000001
32,1.5969,-22.750957280799998,28.6038013604,3.8189448696,-0.024434200000000003,0.22845977000000003,0.33474854000000004
32,1.5969,-27.0484666704,-34.2125775348,-0.41156548719999997,0.24678542000000003,0.19180847000000004,0.7696773000000001
32,1.5969,66.3242568268,18.9367980564,-8.5040915204,-0.8344279300000002,3.6382523800000004,-1.04944889
32,1.5969,94.6983472176,-5.1876393968,9.6574320136,-0.3359702500000001,3.5099728300000006,-1.5735624800000003
32,1.5969,27.7041000628,17.22832272,2.6416761504,-0.30176237000000006,-3.7115549800000007,-2.2845977000000004
32,1.5969,-30.8004125072,21.3009067852,-0.7513462964,-0.28954527,-4.4445809800000005,-1.8948722100000004
32,1.5969,-50.1487760508,31.1593358972,-1.4739787216,-0.6475063000000001,-1.9584011300000004,-1.9559577100000003
32,1.5969,20.7601288776,29.1589362036,-8.685946037999999,-0.6585016900000001,4.180691620000001,-1.7555972700000002
32,1.5969,85.6199782732,-3.7088750299999997,7.250252478,0.019547360000000003,6.583795190000001,-0.6377326200000001
33,1.6505,39.577285804,-3.0340990568,13.3088793012,-0.12339271000000002,-0.9895851000000002,0.5705385700000001
33,1.6505,-25.0624239124,-14.007583500399999,-1.2107682356,-0.07330260000000001,-5.856877740000001,0.6804924700000001
33,1.6505,-76.64689352319999,6.412764568,-19.1760803164,-0.38606036000000005,-1.5479065700000003,1.2571395900000002
33,1.6505,10.0450692748,2.3784656643999997,13.256237204,-0.27121962000000005,5.884977070000001,1.8093525100000003
33,1.6505,40.5918425864,18.137595307999998,8.7529450708,-0.22357293000000003,4.14892716,2.6987573900000004
33,1.6505,-8.49452023,16.3716922292,-4.6277189084,-0.33963538000000004,-2.7940507700000006,2.3811127900000004
33,1.6505,-18.3003072448,6.9296142496,-0.6412764568,-0.36040445000000004,-2.2577200800000004,2.0451425400000005
33,1.6505,-13.1748812356,18.8985128948,-0.6269195211999999,-0.36406958000000006,0.7293608700000002,2.1331056600000005
33,1.6505,12.4474631652,9.0113699116,-0.38763726119999997,-0.17836966000000004,0.35429590000000005,2.0610247700000004
33,1.6505,16.8502567492,13.902299306,6.3696937612,-0.20036044000000003,-1.6945117700000003,1.9058676000000003
33,1.6505,-35.724841418,8.6237326504,7.2406811876,-0.025655910000000004,-4.0548554900000005,2.5814732300000003
33,1.6505,-84.1842847132,5.6327044004,-2.5507488916,0.22601635000000003,-1.5381328900000002,3.2057670400000005
33,1.6505,-35.3994175444,2.1726829208,-4.6755753604,-0.10628877000000002,2.8380323300000003,1.9816136200000003
33,1.6505,26.072195049599998,-10.2699945992,3.1154550251999997,-0.00855197,4.769555840000001,0.21624267000000003
33,1.6505,67.9848757112,20.6452733928,4.594219392,-0.33963538000000004,1.6761861200000003,-1.5931098400000003
33,1.6505,34.7150702808,6.412764568,3.9338003543999998,0.42637679000000006,-3.3389334300000004,-3.0139585700000007
33,1.6505,-20.3389921,4.0821553556,8.5375910368,0.37506497000000005,-4.315079720000001,-3.3242729100000004
33,1.6505,-90.424766054,-1.1198409768,-12.3852497776,0.17959137000000003,-3.822730590000001,-2.3664522700000004
33,1.6505,-69.1477874948,17.9174556288,-9.518648302799999,-0.16248743000000002,0.0024434200000000004,-1.0213495600000002
33,1.6505,18.2285225668,14.6010035052,10.384850084,0.27121962000000005,4.696253240000001,-0.48868400000000006
34,1.6939,30.436703471999998,27.7710990956,3.8476587408,0.037873010000000006,3.3108341000000006,-0.21502096000000004
34,1.6939,23.976082452,17.9988115972,10.413563955199999,0.12583613000000002,-0.00855197,-0.8918483000000001
34,1.6939,30.508488149999998,23.9569398712,0.6652046828,0.15882230000000003,-1.11419952,-1.5784493200000003
34,1.6939,-37.414174173599996,7.4225357052,-6.3505511804,0.44348073000000005,-4.085398240000001,-1.2498093300000002
34,1.6939,-21.3296206564,27.3834618344,-5.7379885948,-0.11606245000000003,-0.4813537400000001,-0.6194069700000001
34,1.6939,-14.964712540399999,2.0673987264,10.313065406,0.22112951000000003,1.7678143700000002,0.5937510600000001
34,1.6939,-6.8051874744,-25.0863521384,-8.9347995884,0.3261965700000001,-0.19058676000000002,0.048868400000000006
34,1.6939,86.3904671504,18.8219425716,-3.1441688964,-0.5082313600000001,2.7573994700000006,-1.5637888000000002
34,1.6939,70.372912666,-3.3212377688,10.222138147199999,-0.13316639000000002,2.2833759900000006,-1.5320243400000002
34,1.6939,28.1013086144,23.8229418056,6.1112689204,-0.030542750000000004,-3.5612846500000006,-2.1783089300000005
34,1.6939,-46.9328224764,21.468404367199998,-11.629117835999999,0.20646899000000005,-5.467152250000001,-1.6187657500000003
34,1.6939,-58.6624388616,30.6664144416,4.1730826144,-0.17103940000000004,-0.6096332900000001,-1.6016618100000002
34,1.6939,32.5567442956,35.2989189952,-1.0001998468,0.15149204000000002,5.205706310000001,-1.3658717800000002
34,1.6939,109.3950636268,-8.446663778,7.9872418388,0.37995181000000006,5.764027780000001,-0.8539752900000002
34,1.6939,35.2175630268,-8.9635134596,-5.3455656884,0.30298408000000004,-2.8099330000000005,0.08674141000000002
34,1.6939,-51.0819768648,-9.6574320136,4.402793584,0.25411568000000007,-7.001620010000001,0.16126572000000003
34,1.6939,-40.6253421028,4.5032921331999995,-11.442477673199999,-0.06963747,-1.1801718600000002,0.8723009400000001
34,1.6939,26.8809690884,-0.5838487144,10.9686987984,-0.15882230000000003,2.1807523500000006,1.2913474700000003
34,1.6939,10.1168539528,24.033510194399998,5.74277424,-0.14416178000000002,-0.21746438000000004,2.2687154700000005
34,1.6939,-34.839497056,5.958128274,-15.4193488344,0.18936505000000003,-3.1837762600000006,2.4434200000000006
35,1.7442,-0.2344966148,15.2614225428,1.818545176,-0.10751048000000002,-1.1251949100000003,2.09278923
35,1.7442,1.8999011444,17.8648135316,6.3122660188,0.12583613000000002,-0.15637888000000003,2.2210687800000004
35,1.7442,-1.5840485612,9.714859756,0.646062102,0.5448826600000001,-1.4428395100000002,2.4666324900000003
35,1.7442,-2.2444675988,11.6195465456,-13.3184505916,0.44103731000000007,-0.40072088000000006,2.45808052
35,1.7442,-13.107882202799999,10.5092768592,6.963113766,0.28588014000000006,-1.5857795800000003,2.4214292200000003
35,1.7442,-84.3278540692,5.6422756908,-4.5607198756,0.4605846700000001,-1.4196270200000003,2.9944112100000004
35,1.7442,-37.1461780424,-11.7535446112,-4.594219392,0.36040445000000004,3.6260352800000004,1.9498491600000003
35,1.7442,41.4724013032,-1.890329854,-5.2354958488,-0.17714795000000003,4.9576991800000005,0.23212490000000005
35,1.7442,51.2446888016,26.512474408,9.1788674936,0.06597234,0.14538349000000003,-1.8093525100000003
35,1.7442,16.3142644868,6.556333924,-3.9816568063999997,0.8332062200000001,-3.0481664500000005,-3.0970348500000004
35,1.7442,12.4522488104,11.370692995199999,17.3144643336,0.7476865200000001,-3.4391136500000004,-3.6223701500000005
35,1.7442,-64.6492810068,-9.7818587888,-5.4604211732,0.7379128400000001,-5.181272110000001,-2.4324246100000004
35,1.7442,-110.0028405672,16.0654109364,-20.827127910399998,0.52167017,-2.6987573900000004,-1.0934304500000003
35,1.7442,-10.6289179892,8.3940216808,2.3832513096,0.6536148500000001,5.101860960000001,-0.38483865000000006
35,1.7442,51.2255462208,31.417760738,24.1962221312,0.17348282000000004,6.075563830000001,-0.19913873000000004
35,1.7442,34.4853593112,19.9513548388,-4.8765724588,0.04153814000000001,1.7592624000000003,-0.5705385700000001
35,1.7442,27.9864531296,25.0959234288,1.220339526,0.19303018000000002,-0.49967939000000006,-1.2424790700000001
35,1.7442,-28.5655161988,11.5142623512,-0.1579262916,0.3677347100000001,-3.2424183400000004,-0.6511714300000001
35,1.7442,-30.7142708936,20.81755662,-7.2646094136,-0.08796312000000002,-0.7232523200000002,-0.52167017
35,1.7442,-22.0522530816,-0.6508477471999999,6.723831506,-0.3836169400000001,2.2955930900000006,0.52777872
36,1.7898,-7.8676007087999995,-14.4861480204,-13.5338046256,-0.09040654000000002,1.6309828500000003,-0.07818944000000001
36,1.7898,121.8042416304,11.676974288,14.8259288296,-0.08796312000000002,3.5857188500000006,-1.2852389200000003
36,1.7898,77.599236918,1.3782658176,9.954142016,-0.11361903000000002,-3.964448950000001,-1.6187657500000003
36,1.7898,-40.2759900032,21.592831142399998,-4.5367916496,-0.29321040000000004,-7.252070560000001,-2.0695767400000005
36,1.7898,-62.7063090556,17.7643149824,-21.281764204399998,-0.15149204000000002,-0.7953332100000001,-1.8276781600000003
36,1.7898,5.455635528,23.5310174484,6.2356956956,-0.37506497000000005,3.2057670400000005,-1.6712992800000002
36,1.7898,50.7182678296,27.2686063496,15.9744836776,-0.4972359700000001,3.3829149900000006,-1.0225712700000003
36,1.7898,39.7399977408,21.2769785592,-12.524033488399999,-0.33474854000000004,1.6065486500000004,-0.8405364800000001
36,1.7898,26.20140747,-10.576275892,4.474578262,0.05619866000000001,1.9229715400000003,-0.5876425100000001
36,1.7898,9.547362174,-9.4372923344,9.499505722,0.04520327000000001,-0.23334661000000004,-0.35918274000000006
36,1.7898,-28.1730932924,-13.7013022076,-1.1581261384,0.10873219000000002,-1.5662322200000003,0.28099330000000006
36,1.7898,-17.3671064308,6.3840506968,-5.6135618196,-0.51556162,0.9138390800000001,0.9737028700000001
36,1.7898,5.2689953651999994,15.5198473836,1.4309079148,-0.18814334000000002,2.0219300500000004,1.7397150400000003
36,1.7898,-21.5066895288,0.646062102,-3.5988051904,0.11972758000000001,0.7085918000000001,2.3994384400000004
36,1.7898,-12.4570344556,28.1252368404,3.0963124444,-0.5461043700000001,0.24556371000000005,1.7409367500000004
36,1.7898,15.6586310944,8.939585233599999,10.4853486332,-0.26388936,1.7617058200000002,1.6639690200000004
36,1.7898,29.5944299168,15.4672052864,-4.1682969692,-0.07452431000000001,-0.43248534000000005,1.6859598000000002
36,1.7898,-5.2594240748,15.6107746424,-3.158525832,0.13316639000000002,-3.8459430800000005,1.7311630700000002
36,1.7898,-27.9194540968,6.412764568,17.8408853056,0.31764460000000005,-3.2815130600000004,1.8362301300000003
36,1.7898,-85.2036271408,6.6376898924,-5.2402814939999995,0.24678542000000003,-1.3548763900000003,2.0732418700000004
37,1.8407,-20.8079853296,13.974083984,-1.0336993632,-0.12339271000000002,2.2235122000000005,1.4269572800000003
37,1.8407,16.797614652,-8.6715891024,3.3595229304,-0.16248743000000002,2.4177640900000004,-0.003665130000000001
37,1.8407,22.1910367924,13.304093656,-10.1742816952,-0.28221501000000004,0.33719196000000007,-2.16853525
37,1.8407,36.3565465844,-0.0334995164,4.4458643908,-0.21257754000000004,-0.29565382000000007,-3.5881622700000007
37,1.8407,17.7691006276,2.3593230836,24.693929232,-0.012217100000000002,-2.5716995500000004,-3.8056266500000007
37,1.8407,-64.6923518136,-1.651047594,-14.8546427008,0.07941115000000001,-6.034025690000001,-3.0005197600000004
37,1.8407,-113.4580764016,15.4384914152,-19.9944256456,-0.32008802000000003,-2.5900252000000004,-1.8643294600000002
37,1.8407,-4.9818566531999995,23.899512128799998,4.2161534212,-0.19669531000000004,5.729819900000001,-1.2937908900000001
37,1.8407,60.729837587999995,25.6127731104,20.0709959688,0.09162825000000001,5.739593580000001,-0.8075503100000001
37,1.8407,22.2197506636,13.5864467228,4.378865358,-0.020769070000000004,-0.9981370700000002,-1.6480867900000002
37,1.8407,-4.1108692268,16.8406854588,-5.9294144028,-0.18692163000000003,-2.3505700400000005,-2.6559975400000004
37,1.8407,7.7718878047999995,10.1024970172,-2.6608187312,0.004886840000000001,-2.08668068,-3.0811526200000006
37,1.8407,-10.987841379199999,7.9393853868,2.4741785684,0.06719405,-2.6010205900000005,-2.3750042400000004
37,1.8407,8.9060857172,25.4213473024,8.6428752312,-0.27610646000000005,-1.0714396700000002,-1.5931098400000003
37,1.8407,-27.421746996,14.7302159256,-1.3734801723999999,-0.22845977000000003,-2.4104338300000006,-0.8270976700000001
37,1.8407,-9.4899344316,-23.7272289016,-24.6317158444,-0.4300419200000001,-0.13805323000000003,-1.4330658300000003
37,1.8407,83.7296484192,18.458233536399998,3.5461630932,-1.0262364000000002,5.007789290000001,-2.6559975400000004
37,1.8407,70.8084063792,-0.6125625856,11.5142623512,-0.5290004300000001,1.06899625,-3.0738223600000003
37,1.8407,8.6524465216,27.780670386,5.0871408476,-0.6682753700000001,-4.978468250000001,-3.4293399700000005
37,1.8407,-50.9862639608,39.266218866,-7.3651079628,-0.7708990100000002,-3.8593818900000008,-3.1116953700000005
38,1.8871,-0.3062812928,8.1786676468,-2.4837498588,-0.7379128400000001,3.9742226300000008,-2.9088915100000006
38,1.8871,49.2347178176,-2.1152551784,-7.7383882883999995,-0.5424392400000001,5.3474246700000005,-1.6908466400000002
38,1.8871,50.895336702,-2.1248264688,4.689932296,-0.3872820700000001,1.1313034600000003,-0.4495892800000001
38,1.8871,-7.6522466748,-2.4502503424,5.0153561695999995,-0.37628668000000004,-2.3774476600000005,0.4874622900000001
38,1.8871,-44.1858621316,10.9495562176,-4.8047877808,-0.4703583500000001,-1.3341073200000002,0.6365109100000002
38,1.8871,-4.2640098732,13.328021882,-2.8522445392,-0.6707187900000001,2.7561777600000004,1.1105343900000002
38,1.8871,28.3836616812,10.313065406,5.2211389132,-0.41538140000000007,2.2491681100000003,1.1740633100000002
38,1.8871,19.1377951548,14.6536456024,-4.5607198756,-0.39461233000000007,-0.5412175300000001,0.8979568500000001
38,1.8871,-13.7778725308,11.6482604168,0.35892339,-0.47768861000000007,-1.8850985300000003,0.5094530700000001
38,1.8871,-16.6253314248,4.594219392,21.0472675896,-0.25533739000000005,-1.6908466400000002,0.7818944000000001
38,1.8871,4.7904308451999995,5.096712138,-22.803599378,-0.7892246600000001,-3.2069887500000007,0.7330260000000001
38,1.8871,-43.7599397088,6.9296142496,-13.6725883364,-0.7660121700000001,-4.43602901,0.9089522400000002
38,1.8871,-67.1234595752,5.5561340772,6.2835521476,-0.7415779700000001,2.0671333200000004,1.6273177200000002
38,1.8871,27.6706005464,45.2387040756,16.462619488,-0.9077305300000001,4.863627510000001,1.0665528300000002
38,1.8871,-4.8382872972,21.0041967828,1.5984054967999999,-0.9810331300000001,-0.6194069700000001,0.9138390800000001
38,1.8871,-68.2002297452,1.7276179172,-11.2606231556,-1.1080909700000001,-1.7763663400000003,-0.23090319000000004
38,1.8871,43.9944363236,-10.2795658896,-21.9565401776,-0.7757858500000001,5.633304810000001,-2.36156543
38,1.8871,96.45467900599999,-19.645073546,27.7423852244,-0.6523931400000001,3.0982565600000007,-2.7610646000000005
38,1.8871,-60.5479830704,-8.872586200799999,11.5716900936,-0.3628478700000001,-9.288661130000001,-2.8135981300000004
38,1.8871,-139.3053461268,8.7673020064,-20.6596303284,-0.5180050400000001,-5.536789720000001,-2.7048659400000004
39,1.9349,2.9383861528,39.2470762852,-1.8711872732,-0.8710792300000001,7.528177020000001,-2.8209283900000006
39,1.9349,49.8520660484,29.8959255644,20.5734887148,-0.9517120900000001,3.9986568300000007,-1.9278583800000004
39,1.9349,1.363908882,16.414763036,0.41156548719999997,-0.6682753700000001,-1.3304421900000003,-2.0720201600000006
39,1.9349,-13.7778725308,6.8961147332,-2.2205393728,-1.00546733,-0.32497486000000003,-2.6266765000000003
39,1.9349,14.5579326984,6.6089760212,12.6771741348,-1.1862804100000002,-0.6426194600000001,-3.4440004900000005
39,1.9349,43.6163703528,19.214365478,-1.0576275892,-1.2974560200000003,-0.10506706000000002,-3.3438202700000006
39,1.9349,5.7762737564,17.8121714344,-5.958128274,-0.8967351400000001,-2.5069489200000006,-2.0781287100000005
39,1.9349,-17.8121714344,24.5120747144,8.3461652288,-1.0641094100000001,-4.823311080000001,-1.9009807600000004
39,1.9349,-32.7194562324,17.6638164332,-5.1254260092,-1.3744237500000003,-1.4379526700000003,-1.1410771400000002
39,1.9349,-23.1290232516,-25.2107789136,-9.6000042712,-1.4416178000000002,1.3719803300000002,-1.6884032200000003
39,1.9349,91.8078175168,20.1667088728,10.609775408399999,-1.9254149600000003,5.527016040000001,-3.3157209400000007
39,1.9349,100.8479012996,-7.2837519944,11.763115901599999,-1.3866408500000003,2.3017016400000005,-3.5197465100000005
39,1.9349,-2.9096722816,22.3872482456,-7.4273213504,-1.7409367500000004,-4.713357180000001,-3.6577997400000006
39,1.9349,-23.6267303524,33.6287288204,-9.4420779796,-2.2100733900000002,-2.9040046700000004,-3.6529129000000005
39,1.9349,-4.7808595548,4.3118663252,-4.163511324,-1.8350084200000003,2.4299811900000003,-2.6303416300000007
39,1.9349,-1.4979069476,1.6079767872,12.634103328,-1.6664124400000002,4.5801907900000005,-0.9969153600000001
39,1.9349,48.708296845599996,5.7236316592,12.5192478432,-1.6566387600000003,2.4935101100000003,0.5558780500000001
39,1.9349,-3.7567314819999997,8.7003029736,-5.3790652048,-1.6566387600000003,-1.0103541700000003,1.4074099200000003
39,1.9349,-42.4056021172,9.9589276612,-4.9483571368,-1.2962343100000002,-0.33230512000000006,0.9553772200000001
39,1.9349,-18.30509289,3.6658042232,-13.036097524799999,-1.3622066500000003,3.1275776000000004,1.0286798200000002
40,1.9831,69.16693007559999,19.1760803164,7.944171032,-2.3065884800000003,3.6932293300000008,0.5644300200000001
40,1.9831,36.3804748104,18.9846545084,39.1178638648,-1.4208487300000003,-3.3914669600000007,0.21624267000000003
40,1.9831,-68.721865072,-6.0442698876,-29.2067926556,-1.2278185500000003,-6.982072650000001,0.57909054
40,1.9831,-45.6359126272,14.0315117264,-14.510076246399999,-2.0194866300000003,-1.5735624800000003,0.8637489700000002
40,1.9831,7.479963447599999,1.2825529136,23.4305188992,-1.5405763100000003,1.3402158700000002,1.0604442800000002
40,1.9831,-36.0981217436,16.917255781999998,-12.490533972,-1.7006203200000003,-0.31886631000000004,1.5625670900000002
40,1.9831,-8.5854474888,28.4937315208,9.2745803976,-2.0121563700000005,1.1545159500000002,0.9810331300000001
40,1.9831,-18.281164664,33.6813709176,25.378276495599998,-2.3701174000000003,1.5503499900000002,1.0567791500000001
40,1.9831,-45.9709077912,-14.519647536799999,-27.8476694188,-1.8081308000000003,-0.4813537400000001,-0.8234325400000001
40,1.9831,52.7425957492,-9.4851487864,-4.713860522,-2.5448219300000003,5.332764150000001,-2.6792100300000006
40,1.9831,61.280186786,-15.6347028684,31.3507617052,-2.1526530200000003,1.6505302100000003,-2.5203877300000004
40,1.9831,-31.800612354,-4.6995035864,-4.0965122912,-1.5002598800000002,-9.249566410000002,-2.6095725600000006
40,1.9831,-124.9340535912,13.294522365599999,-11.4520489636,-1.8056873800000004,-6.472619580000001,-2.5167226000000005
40,1.9831,-32.944381556799996,41.802610822,-2.3928226,-2.17097867,5.6797297900000006,-2.7134179100000004
40,1.9831,71.30132783479999,24.3924335844,25.191636332799998,-1.9351886400000002,3.958340400000001,-2.0255951800000003
40,1.9831,32.3892467136,21.6502588848,3.11066938,-1.5381328900000002,-4.509331610000001,-2.3236924200000004
40,1.9831,-63.601224708,3.6466616424,-8.9922273308,-1.6969551900000002,-4.203904110000001,-2.6669929300000006
40,1.9831,-5.096712138,16.7593294904,4.2496529376,-1.8899853700000002,0.9065088200000001,-3.6944510400000006
40,1.9831,74.8379196376,15.538989964399999,11.174481542,-1.4538349000000002,2.9516513600000005,-2.8820138900000005
40,1.9831,12.634103328,5.934200048,-7.2646094136,-1.5601236700000003,-3.5405155800000006,-1.6639690200000004
41,2.0308,-77.7571632096,33.6000149492,-10.911271056,-2.1233319800000006,-3.855716760000001,-1.2779086600000003
41,2.0308,-27.2016073168,2.0865413072,16.3860491648,-1.7727012100000004,4.6620453600000005,-0.5143399100000001
41,2.0308,51.134618962,-16.1371956144,-8.7385881352,-1.7299413600000002,4.921047880000001,-1.6028835200000002
41,2.0308,104.1260682616,16.9124701368,11.370692995199999,-2.2516115300000004,2.7293001400000003,-3.1153605000000004
41,2.0308,51.80460929,2.3114666316,12.059825904,-1.4697171300000003,-1.8521123600000002,-3.4244531300000007
41,2.0308,-23.80858487,41.831324693199996,-12.5096765528,-1.6896249300000004,-4.962586020000001,-3.4879820500000007
41,2.0308,-3.0580272828,22.679172602799998,0.7082754896,-1.6871815100000003,-1.4171836000000002,-3.8642687300000005
41,2.0308,17.443676754,-1.5409777544,12.6628171992,-1.5002598800000002,0.8686358100000001,-2.9259954500000003
41,2.0308,4.0055850324,0.5407779076,-8.0207413552,-1.5491282800000004,-0.35429590000000005,-0.9492686700000001
41,2.0308,23.5023035772,3.0532416376,0.2249253244,-1.4367309600000002,0.14049665000000003,0.8283193800000002
41,2.0308,0.0,3.7232319656,10.9639131532,-1.3793105900000002,-2.1978562900000003,1.1300817500000002
41,2.0308,-49.914279436,8.2408810344,-16.654045296,-1.4990381700000002,-2.8404757500000004,1.26080472
41,2.0308,-9.5330052384,13.8927280156,3.4983066412,-1.3414375800000002,2.5032837900000002,1.4416178000000002
41,2.0308,59.5621401592,17.3814633664,7.3746792532,-1.5002598800000002,3.2680742500000006,1.2815737900000002
41,2.0308,11.6578317072,11.533404932,6.0825550492,-1.0323449500000001,-4.123271250000001,0.8576404200000002
41,2.0308,-49.3017168504,6.326622954399999,-6.5611195692,-0.9004002700000001,-6.207508510000001,1.1239732000000002
41,2.0308,-12.2943225188,10.241280728,-2.2827527603999997,-1.3475461300000002,-3.1385729900000006,1.4611651600000002
41,2.0308,-21.966111468,2.2444675988,-10.3992070196,-1.1361903000000002,-2.4421982900000003,1.7103940000000002
41,2.0308,-34.3082904388,32.8582399432,-1.3686945272,-1.4917079100000001,-0.4813537400000001,1.7922485700000004
41,2.0308,-7.3746792532,26.5220456984,14.3377930192,-1.5894447100000002,-0.012217100000000002,1.7580406900000003
42,2.0805,-37.5051014324,-2.8091737324,5.9724852096,-1.3426592900000003,-3.0848177500000005,0.8796312000000002
42,2.0805,-17.0273256216,-5.3024948815999995,-18.6018028924,-1.7470453000000004,1.5821144500000002,-1.11419952
42,2.0805,70.157558632,-7.274180704,-10.145567824,-1.7727012100000004,5.120186610000001,-2.7525126300000005
42,2.0805,39.2087911236,-14.3042935028,19.9657117744,-1.2840172100000002,-1.7751446300000002,-2.6559975400000004
42,2.0805,-70.1479873416,1.4548361408,-29.340790721199998,-1.5931098400000003,-8.180570160000002,-2.5460436400000006
42,2.0805,-83.6387211604,24.9906392344,0.7704888772,-1.8887636600000004,-2.6633278000000002,-1.8826551100000004
42,2.0805,-27.302105865999998,39.6825699984,15.290136414,-1.6517519200000004,2.8038244500000005,-1.2327053900000002
42,2.0805,5.8432727892,14.9359986692,-12.0406833232,-1.4550566100000002,4.8098722700000005,-0.9150607900000002
42,2.0805,49.363930238,26.6991145708,5.685346497599999,-1.9950524300000003,4.425033620000001,-1.4122967600000003
42,2.0805,10.8682002492,2.6368905052,13.3710926888,-1.2265968400000002,-1.9962741400000004,-1.9803919100000003
42,2.0805,10.2795658896,18.592231602,-17.5920317552,-1.4721605500000003,-2.1477661800000005,-2.8160415500000004
42,2.0805,-1.7419748527999999,13.1174534932,10.7389878288,-1.4526131900000003,0.4129379800000001,-1.4929296200000002
42,2.0805,-5.3934221404,23.306092124,5.2833523008,-1.5833361600000002,-0.9517120900000001,-0.9773680000000001
42,2.0805,-43.7934392252,25.3112774628,-13.9932265648,-1.2925691800000003,-0.8723009400000001,-0.23456832000000005
42,2.0805,-23.6937293852,-38.40480273,-0.8279166196,-1.1899455400000003,3.2204275600000005,-0.16126572000000003
42,2.0805,98.0722270836,21.540189045199998,12.2129665504,-2.11111488,6.576464930000001,-1.9657313900000004
42,2.0805,107.7870868396,-4.2065821308,9.5904329808,-1.26080472,2.5912469100000006,-2.5472653500000004
42,2.0805,9.7196454012,14.4239346328,-2.1822542112,-1.3341073200000002,-6.043799370000001,-3.2497486000000007
42,2.0805,-65.7021229508,40.3764885524,-9.403792818,-1.4086316300000001,-5.127516870000001,-2.5680344200000005
42,2.0805,-25.512274561199998,29.07279459,-0.6843472636,-1.5112552700000002,1.0848784800000002,-2.9663118800000006
43,2.1278,47.7224539344,4.1778682596,19.936997903199998,-1.09465216,6.726735260000001,-1.9608445500000002
43,2.1278,70.7749068628,-1.2729816232,3.8333018052,-0.9370515700000002,2.7207481700000002,-0.3469656400000001
43,2.1278,12.0885397752,-11.6578317072,0.7274180704,-0.9077305300000001,-4.1330449300000005,1.1386337200000003
43,2.1278,-83.70093454799999,-1.9669001771999999,-7.3794648984,-0.7489082300000002,-4.631502610000001,1.1129778100000003
43,2.1278,-47.6123840948,0.4498506488,-10.241280728,-1.22904026,3.9216891000000005,1.2094929
43,2.1278,53.8815793068,18.759729184,18.8458707976,-1.4794908100000002,7.006506850000001,2.5008403700000006
43,2.1278,47.042892316,21.559331626,17.5537465936,-0.7745641400000002,-2.2577200800000004,1.9962741400000004
43,2.1278,-39.2279337044,0.191425808,-12.6676028444,-0.5986379000000001,-4.748786770000001,1.8337867100000003
43,2.1278,-35.9736949684,19.6498591912,-2.3306092123999997,-1.0470054700000002,-0.8283193800000002,1.8398952600000003
43,2.1278,6.6855463444,10.743773474,5.9294144028,-1.2204882900000003,-0.16615256000000003,2.2027431300000004
43,2.1278,27.8907402256,8.4849489396,7.29810893,-0.9602640600000002,-3.8325042700000007,2.03536886
43,2.1278,-86.83553215399999,24.0095819684,-0.7944171032,-1.3328856100000002,-6.873340460000001,2.8172632600000003
43,2.1278,-88.6349347492,15.2374943168,-0.47377887479999997,-1.5918881300000003,-1.0408969200000002,2.3627871400000005
43,2.1278,28.316662648399998,-4.4123648744,1.8137595307999999,-1.3939711100000003,4.804985430000001,0.4972359700000001
43,2.1278,61.0361188808,4.5559342304,-3.2733813168,-1.6847380900000002,2.9626467500000007,-1.7702577900000003
43,2.1278,53.886364952,-10.313065406,17.0033973956,-1.1044258400000002,-1.8960939200000002,-2.5704778400000006
43,2.1278,-25.636701336399998,-13.0313118796,-2.1487546948,-0.9895851000000002,-6.012034910000001,-2.16853525
43,2.1278,-97.7563745004,11.8157579988,-10.2747802444,-1.1227514900000002,-5.581992990000001,-1.9168629900000003
43,2.1278,-89.3767097552,23.009382121599998,-13.8879423704,-1.4684954200000002,1.6712992800000002,-1.2192665800000002
43,2.1278,26.2109787604,38.88336725,14.830714474799999,-1.3426592900000003,6.305245310000001,-0.31642289000000007
44,2.1758,77.82416224239999,24.88535504,13.543375916,-0.7513516500000001,1.5857795800000003,-0.31397947000000004
44,2.1758,-2.8905297008,19.678573062399998,6.8626152168,-0.8087720200000001,-3.8276174300000005,-1.0653311200000002
44,2.1758,-34.5092875372,7.848458128,-8.183453292,-0.5326655600000001,-2.8331454900000006,-2.2784891500000004
44,2.1758,33.6287288204,20.9324121048,13.299308010799999,-0.47280177000000007,1.1093126800000002,-1.9131978600000004
44,2.1758,18.3146641804,11.5764757388,12.418749294,0.029321040000000007,-3.3951320900000006,-0.6756056300000001
44,2.1758,-50.2109894384,19.2765788656,-23.8277274508,-1.01768443,-4.170917940000001,0.05986379000000001
44,2.1758,-73.962146566,1.6941184007999999,6.1447684368,-0.9187259200000002,2.1722003800000005,0.7098135100000001
44,2.1758,77.4125967552,-19.8173567732,2.0913269523999998,-0.7415779700000001,8.488441080000001,-0.6670536600000001
44,2.1758,150.2788305704,18.0610249848,32.7433844584,-1.1752850200000002,4.130601510000001,-1.6774078300000004
44,2.1758,22.0953238884,-9.5760760452,-0.6604190376,-0.5009011000000001,-7.682112480000002,-2.3273575500000003
44,2.1758,-89.347995884,59.0165766064,-13.6917309172,-1.0396752100000002,-7.954553810000001,-2.29803651
44,2.1758,-35.5669151264,11.0117696052,-9.068797653999999,-0.20036044000000003,1.8863202400000003,-2.3236924200000004
44,2.1758,54.5180701184,16.0462683556,29.8002126604,-0.33841367000000006,6.405425530000001,-2.5533739000000004
44,2.1758,67.2574576408,18.233308212,2.6751756668,-0.41171627000000005,1.4819342300000002,-0.8771877800000002
44,2.1758,17.0656107832,-24.2345072928,-13.1222391384,0.13560981000000003,-4.16114426,0.8234325400000001
44,2.1758,-47.4831716744,-0.34935209959999997,-0.861416136,-0.25167226000000004,-4.984576800000001,1.3866408500000003
44,2.1758,-49.0241494288,2.7852455064,-5.1541398804,-0.22235122000000004,-1.1948323800000002,1.3585415200000002
44,2.1758,5.9676995644,2.1104695332,15.9409841612,-0.42148995000000006,3.6724602600000007,2.5509304800000003
44,2.1758,36.61018578,37.1078928808,5.6805608524,-0.53144385,1.7079505800000003,2.6193462400000005
44,2.1758,5.168496816,-4.66600407,-0.49770710079999997,0.4300419200000001,-3.2265361100000005,2.5326048300000004
45,2.224,-20.382062906799998,19.2526506396,-14.165509792,-0.33719196000000007,-4.122049540000001,2.7891639300000004
45,2.224,-43.5206574488,6.6472611827999994,15.649059804,-0.025655910000000004,-4.207569240000001,2.7903856400000007
45,2.224,-6.7286171512,6.8865434428,1.8807585636,-0.63040236,-1.3218902200000002,2.5973554600000006
45,2.224,-28.8382979752,34.4183602784,-16.9507552984,-0.9040654000000001,-1.7959137000000003,2.2125168100000003
45,2.224,-31.7575415472,25.507488916,3.23031051,-1.1117561000000002,-0.31153605000000006,1.8679945900000003
45,2.224,-28.8861544272,1.363908882,3.1537401868,-0.6670536600000001,-0.23090319000000004,0.8503101600000001
45,2.224,32.0063950976,-18.18545176,4.7712882644,-0.7147003500000001,3.7359891800000007,-1.4281789900000001
45,2.224,42.544385827999996,-5.3934221404,13.423734785999999,-1.1276383300000001,2.7683948600000003,-1.5479065700000003
45,2.224,-16.9268270724,-21.075981460799998,-17.6733877236,-0.28099330000000006,-3.9815528900000006,-1.3316639000000001
45,2.224,-83.581293418,18.6496593444,-23.5980164812,-0.37873010000000007,-4.6620453600000005,-0.9920285200000002
45,2.224,-36.1938346476,25.253849720399998,22.0570387268,-0.5265570100000001,1.8997590500000003,-0.8466450300000001
45,2.224,-12.729816232,38.04587934,14.787643668,-0.7427996800000001,2.9858592400000004,-0.31642289000000007
45,2.224,28.9914386216,20.2145653248,-6.5898334404,-0.46180638000000007,4.155035710000001,-0.30787092000000005
45,2.224,29.9677102424,20.9324121048,-6.1878392436,-0.5436609500000001,0.11850587000000001,-1.0726613800000002
45,2.224,-4.4075792292,0.885344362,17.5537465936,0.06597234,-3.5319636100000005,-1.5674539300000003
45,2.224,16.2855506156,8.6763747476,12.6484602636,-0.006108550000000001,-1.8948722100000004,-1.9107544400000003
45,2.224,8.518448456,19.2670075752,-6.269195212,-0.42271166000000004,-0.8356496400000001,-0.9798114200000002
45,2.224,-18.8123712812,17.0464682024,-9.0879402348,-0.4752451900000001,-1.7629275300000002,-0.7770075600000002
45,2.224,-2.6943182476,26.79961312,8.2743805508,-0.12827955000000002,1.8460038100000002,-0.09529338000000001
45,2.224,-11.5190479964,-20.382062906799998,16.5918319084,-0.00855197,0.6267372300000001,0.53144385
46,2.273,42.9463800248,4.235296002,13.5864467228,-0.8771877800000002,1.0983172900000002,-1.4013013700000003
46,2.273,65.0799890748,5.8672010152,-2.7900311516,-0.8270976700000001,3.8031832300000006,-2.2821542800000003
46,2.273,39.2087911236,14.0793681784,-31.154550252,-0.21502096000000004,-1.4342875400000001,-2.40066015
46,2.273,-0.4498506488,38.5292295052,36.4474738432,-0.26144594000000004,-2.9088915100000006,-2.4837364300000004
46,2.273,-8.9635134596,-3.7854453532,20.961125975999998,0.26511107000000006,0.4899057100000001,-1.5637888000000002
46,2.273,-6.5754765048,-1.483550012,-2.297109696,-0.10140193000000002,-1.3670934900000002,-0.6927095700000001
46,2.273,3.3451659948,15.8739851284,-13.6103749488,-0.19180847000000004,0.31886631000000004,1.5393546000000002
46,2.273,1.148554848,-0.2105683888,-6.149554082,0.6071898700000001,1.3695369100000003,2.3713391100000005
46,2.273,-16.1563381952,5.86241537,25.7754850472,0.6585016900000001,0.53144385,2.4018818600000005
46,2.273,-6.7525453772,12.5479617144,-2.0147566292,-0.19180847000000004,0.4666932200000001,1.8887636600000004
46,2.273,61.8640355004,14.452648503999999,-3.7280176108,-0.5900859300000001,1.1398554300000001,1.7494887200000002
46,2.273,20.051853387999998,21.3104780756,9.9349994352,0.5363306900000001,-5.412175300000001,1.8887636600000004
46,2.273,-98.1344404712,-8.709874264,-12.7585301032,0.7354694200000002,-6.587460320000001,2.0304820200000004
46,2.273,-59.3467861252,8.9874416856,14.199009308399999,0.23334661000000004,1.4440612200000003,1.9412971900000002
46,2.273,-3.3930224468,27.3212484468,4.1922251952,-0.15882230000000003,1.5735624800000003,1.7983571200000004
46,2.273,26.0386955332,23.8851551932,-8.551947972399999,0.31153605000000006,-0.28710185000000005,0.7708990100000002
46,2.273,5.9198431124,38.6488706352,-4.5032921331999995,-0.19303018000000002,0.8637489700000002,0.20280386000000003
46,2.273,-14.959926895199999,1.2490533972,21.5545459808,-0.13805323000000003,-0.10140193000000002,0.4251550800000001
46,2.273,-31.336404769599998,-25.191636332799998,11.413763802,0.06475063000000002,-2.6230113700000004,0.19425189000000004
46,2.273,-69.44928314239999,-28.4841602304,-20.755343232399998,-0.22479464000000005,-0.8368713500000001,0.5033445200000001
47,2.3201,-51.9529642912,7.3028945752,-12.059825904,-0.48868400000000006,3.4122360300000008,0.6585016900000001
47,2.3201,42.9080948632,17.515461432,10.2460663732,-0.12339271000000002,4.552091460000001,-0.15271375000000004
47,2.3201,56.5758975544,32.6524571996,29.0440807188,0.30909263000000003,-0.31397947000000004,-1.4746039700000002
47,2.3201,-1.9812571128,26.4933318272,5.7954163372,0.10751048000000002,-4.113497570000001,-2.2320641700000006
47,2.3201,-75.5126956108,14.1846523728,-6.9918276372,0.28954527,-3.3963538000000004,-2.3298009700000004
47,2.3201,1.3686945272,17.0177543312,-34.6959277,0.0024434200000000004,1.6028835200000002,-2.5032837900000002
47,2.3201,41.1039066228,11.4807628348,47.5166711908,0.7440213900000001,-0.9456035400000001,-1.7641492400000003
47,2.3201,-9.6957171752,-8.8008015228,25.5266314968,1.1679547600000002,-6.112215130000001,-1.7274979400000003
47,2.3201,-44.123648744,7.5996045776,-51.148975897599996,-0.6780490500000002,1.3695369100000003,-1.8032439600000003
47,2.3201,44.8223529432,26.1918361796,29.4365036252,0.10384535000000002,8.669254160000001,-2.3591220100000005
47,2.3201,101.08718355959999,6.3026947284,24.933211491999998,1.0274581100000002,0.8270976700000001,-2.0549162200000004
47,2.3201,-0.3637090352,22.0666100172,7.010970218,0.6646102400000001,-8.78165148,-1.5149204000000003
47,2.3201,-106.17911005239999,29.9533533068,-8.748159425599999,-0.8735226500000002,-2.6022423000000003,-0.46302809000000006
47,2.3201,-13.4093778504,15.1034962512,-10.734202183599999,-0.9407167000000002,5.173941850000001,-1.1899455400000003
47,2.3201,94.9854859296,-23.2773782528,-6.2883377928,0.4972359700000001,5.578327860000001,-2.3701174000000003
47,2.3201,105.4421206916,-8.279166196,45.1860619784,-0.08918483000000002,1.3463244200000002,-2.2357293000000005
47,2.3201,38.787654346,-6.8147587648,40.6014138768,0.31642289000000007,-7.531842150000001,-0.7415779700000001
47,2.3201,-84.70592004,11.7104738044,-46.9902502188,0.26144594000000004,-9.475582760000002,0.24067687000000004
47,2.3201,-103.7815018072,24.454646972,-24.0287245492,0.6084115800000001,-0.37139984000000004,0.9382732800000002
47,2.3201,4.737788748,22.0235392104,31.920253484,0.9443818300000002,6.394430140000001,1.7311630700000002
48,2.3689,107.7870868396,26.919254249999998,26.20140747,0.3469656400000001,5.550228530000001,2.1428793400000004
48,2.3689,33.5760867232,23.3108777692,-2.5651058272,0.6743839200000001,-1.9987175600000002,2.11111488
48,2.3689,-57.2650304632,-1.0863414604,-18.7310153128,1.04944889,-4.751230190000001,1.0934304500000003
48,2.3689,-22.1671085664,4.5798624564,-1.3016954943999999,1.0384535000000001,1.4965947500000003,0.9138390800000001
48,2.3689,-15.7399870628,8.1020973236,10.604989763199999,0.6963747000000001,0.9578206400000001,1.0726613800000002
48,2.3689,-15.668202384799999,19.573288868,30.0155666944,0.8698575200000002,-2.8026027400000006,-0.12339271000000002
48,2.3689,-40.1180637116,19.3196496724,-26.019552952399998,1.0909870300000002,1.00546733,-0.26755449000000003
48,2.3689,21.0903383964,14.711073344799999,-2.0769700168,0.9627074800000002,4.123271250000001,-1.2070494800000002
48,2.3689,48.315873939199996,2.057827436,34.9543525408,1.0665528300000002,1.0567791500000001,-0.5839773800000001
48,2.3689,-35.2749907692,-15.5868464164,3.0532416376,1.3793105900000002,-6.506827460000001,0.26388936
48,2.3689,-148.8431370104,39.481572899999996,-25.3926334312,0.5509912100000001,-5.068874790000001,1.7360499100000002
48,2.3689,-66.305114246,-1.8999011444,12.1363962272,0.3775083900000001,5.279008910000001,2.1355490800000005
48,2.3689,43.4728009968,13.9645126936,14.3377930192,0.6401760400000001,6.578908350000001,1.0518923100000002
48,2.3689,75.79026303239999,0.7465606512,-1.0719845248,0.8466450300000001,3.1495683800000007,-0.7159220600000001
48,2.3689,32.1451788084,11.4759771896,18.1710948244,0.7611253300000002,-3.0371710600000004,-2.0634681900000005
48,2.3689,-36.667613522399996,12.4570344556,-0.5886343596,1.0580008600000002,-6.960081870000002,-3.2424183400000004
48,2.3689,-42.83152454,0.3206382284,-9.0975115252,1.4648302900000003,-3.7799707400000004,-4.0304212900000005
48,2.3689,-32.1164649372,10.815558152,-17.051253847599998,0.7599036200000001,0.5864208000000001,-3.5392938700000007
48,2.3689,-16.797614652,21.990039694,-3.1058837348,0.09284996000000001,5.336429280000001,-2.1929694500000005
48,2.3689,71.7511784836,7.6857461912,41.0225506544,1.3194468000000001,6.042577660000001,-2.2674937600000002
49,2.4169,70.5356246028,6.518048762399999,20.0231395168,1.0665528300000002,-0.7024832500000001,-2.6083508500000003
49,2.4169,-45.305703108399996,2.919243572,2.5938196984,0.9358298600000001,-5.30588653,-3.3560373700000006
49,2.4169,-55.762337870399996,25.0384956864,-33.6048005944,0.4447024400000001,4.073181140000001,-3.707889850000001
49,2.4169,79.6953495156,20.5734887148,7.7575308692,0.9138390800000001,9.360742020000002,-3.759201670000001
49,2.4169,89.324067658,27.7902416764,48.0430921628,0.8723009400000001,-0.26144594000000004,-2.9088915100000006
49,2.4169,-3.5796626095999997,12.3900354228,30.556344602,1.1740633100000002,-5.937510600000001,-0.5204484600000001
49,2.4169,-80.0494872604,-30.293134116,-33.0113805896,0.8429799000000001,-6.393208430000001,1.5014815900000003
49,2.4169,-55.6283398048,8.1403824852,-14.6345030216,0.22968148000000005,-1.6175440400000003,0.8564187100000001
49,2.4169,49.1055053972,-7.4033931244,15.266208188,1.2595830100000003,5.182493820000001,0.5998596100000001
49,2.4169,91.8461026784,8.7242311996,29.3886471732,0.8564187100000001,3.3108341000000006,0.26266765000000003
49,2.4169,17.7882432084,39.7017125792,4.3884366484,0.7782292700000001,-3.7689753500000007,0.24067687000000004
49,2.4169,-25.191636332799998,31.9298247744,-5.6518469812,1.4489480600000002,-5.562445630000001,-1.0604442800000002
49,2.4169,-46.7174684424,10.8921284752,-27.661029256,1.8252347400000002,-0.5619866000000001,-0.61452013
49,2.4169,-21.9996109844,19.6833587076,25.1868506876,1.8081308000000003,3.4867603400000005,0.16615256000000003
49,2.4169,-6.1112689204,21.1334092032,20.745771942,1.8716597200000002,3.988883150000001,0.10873219000000002
49,2.4169,13.615160593999999,23.9234403548,-20.1044954852,1.5515717000000002,4.589964470000001,-0.8930700100000002
49,2.4169,47.7320252248,15.8787707736,-10.2987084704,1.0140193000000002,2.6902054200000003,-1.7372716200000002
49,2.4169,36.299118842,2.464607278,48.6317265224,1.9693965200000003,-2.23450759,-1.3206685100000002
49,2.4169,-98.5986480556,-31.6713999336,-5.048855686,2.8135981300000004,-6.130540780000001,-0.013438810000000002
49,2.4169,-144.9715500436,18.1950230504,-2.6129622792,1.1801718600000002,-1.5442414400000002,0.51189649
50,2.4649,-19.3914343504,13.619946239199999,2.2923240508,1.4941513300000002,5.665069270000001,0.7782292700000001
50,2.4649,90.3816952472,39.8979240324,-6.3553368256,1.7299413600000002,5.931402050000001,0.9810331300000001
50,2.4649,60.5049122636,35.8875533548,12.0263263876,1.9865004600000002,-1.6712992800000002,0.39216891000000004
50,2.4649,-49.6223550788,12.32303639,52.7186675232,1.9107544400000003,-8.62160747,0.45325441000000005
50,2.4649,-104.56634762,-20.9706972664,-26.20140747,2.2051865500000005,-6.8818924300000015,-1.5967749700000002
50,2.4649,1.9764714676,-1.55533469,-34.2030062444,1.7226111000000002,4.343179050000001,-3.0750440700000006
50,2.4649,63.9266485816,-1.1341979124,29.2498634624,2.2455029800000004,3.6272569900000007,-2.6584409600000005
50,2.4649,22.5068893756,7.5086773188,-8.4993058752,2.2320641700000006,-3.1165822100000007,-3.1324644400000006
50,2.4649,-34.3705038264,9.4372923344,23.454447125199998,2.4067687,-1.0897653200000001,-3.3377117200000006
50,2.4649,-15.2709938332,11.7439733208,5.5226345608,1.9486274500000003,2.5997988800000003,-4.01698248
50,2.4649,19.0755817672,19.5158611256,-16.3812635196,1.5979966800000003,3.3144992300000005,-3.3645893400000007
50,2.4649,23.2869495432,22.3202492128,9.9397850804,1.7861400200000004,1.3438810000000003,-2.9076698000000003
50,2.4649,-23.6219447072,1.8616159828,7.9585279676,1.6676341500000003,1.4025230800000001,-3.1996584900000005
50,2.4649,26.4263327944,19.5876458036,-5.9724852096,0.9260561800000001,5.387741100000001,-4.189243590000001
50,2.4649,121.6223871128,10.0689975008,30.6616287964,1.1166429400000002,4.692588110000001,-3.2387532100000005
50,2.4649,38.76372612,7.4751778024,24.0095819684,2.1697569600000004,-6.669314890000001,-0.7806726900000002
50,2.4649,-112.5679463944,16.797614652,-13.9932265648,1.6884032200000003,-11.203080700000001,0.5778688300000001
50,2.4649,-80.31748339159999,-4.235296002,5.6374900456,1.2156014500000003,-0.9920285200000002,2.0488076700000004
50,2.4649,8.7242311996,21.1334092032,-2.7086751832,0.7880029500000001,4.07928969,2.0243734700000005
50,2.4649,72.215386068,-24.3493627776,1.2586246876,1.5356894700000003,1.6798512500000002,1.4391743800000003
51,2.5128,78.9440032192,24.933211491999998,18.6257311184,1.0970955800000002,0.42026824000000007,-0.24312029000000004
51,2.5128,17.175680622799998,13.5146620448,14.2085805988,1.6370914000000003,-4.155035710000001,-0.8478667400000002
51,2.5128,-37.6438851432,29.7379992728,-12.3038938092,1.6163223300000003,-4.759782160000001,-0.9785897100000002
51,2.5128,-111.41460590119999,27.747170869599998,-13.6486601104,2.2100733900000002,0.39094720000000005,-0.5754254100000001
51,2.5128,-31.0205521864,23.9856537424,25.761128111599998,2.3591220100000005,7.569715160000001,-1.10686926
51,2.5128,83.1792992212,13.5003051092,-2.4023938904,1.6126572000000003,11.069914310000001,-0.09773680000000001
51,2.5128,78.7430061208,17.994025952,12.2321091312,1.4575000300000003,3.3022821300000005,-0.20036044000000003
51,2.5128,8.6237326504,1.6558332392,19.8795701608,2.6669929300000006,-6.060903310000001,-0.24922884000000003
51,2.5128,-132.3326610704,-21.281764204399998,-8.087740388,3.0860394600000003,-7.5917059400000015,0.5925293500000001
51,2.5128,-133.8736388248,9.9589276612,3.6897324492,1.9205281200000004,2.1978562900000003,1.2070494800000002
51,2.5128,27.7280282888,10.1312108884,15.8213430312,1.6639690200000004,8.643598250000002,1.1679547600000002
51,2.5128,101.5657480796,56.7625377172,-3.0819555088,1.6322045600000004,2.6731014800000006,1.2143797400000003
51,2.5128,18.711872732,33.5282302712,13.351950108,2.3933298900000004,-6.747504330000001,1.1056475500000003
51,2.5128,-77.2929556252,13.0600257508,17.9988115972,2.1160017200000003,-8.225773430000002,0.7415779700000001
51,2.5128,-57.6000256272,-33.1358073648,-15.2470656072,2.5607041600000002,-3.5563978100000004,-1.8386735500000002
51,2.5128,32.0255376784,11.2989083172,2.1248264688,1.8789899800000003,2.0402557000000003,-2.8893441500000003
51,2.5128,21.023339363599998,-14.380863826,8.3700934548,3.0115151500000006,-1.3292204800000003,-2.4727410400000003
51,2.5128,-2.8857440556,16.3621209388,-18.520446923999998,2.3090319000000004,-0.4593629600000001,-2.5790298100000006
51,2.5128,-22.1383946952,9.0161555568,24.808784716799998,2.9296605800000006,1.8887636600000004,-2.8893441500000003
51,2.5128,-13.495519464,17.2235370748,-6.8004018292,2.2308424600000003,3.6553563200000005,-3.2167624300000006
52,2.5635,33.4708025288,13.806586401999999,0.47377887479999997,1.9730616500000002,5.839773800000001,-2.3359095200000004
52,2.5635,26.057838114,20.5399891984,9.5712904,1.4000796600000003,4.150148870000001,-1.7299413600000002
52,2.5635,-14.0362973716,-6.2261244052,-2.919243572,1.1801718600000002,3.1532335100000006,-1.9510708700000003
52,2.5635,14.2899365672,2.6033909887999998,-9.8010013696,0.6230721000000001,6.056016470000001,-2.3236924200000004
52,2.5635,87.51030812719999,26.6704006996,27.8380981284,0.23456832000000005,4.565530270000001,-1.5747841900000004
52,2.5635,39.6634274176,22.420747761999998,22.5786740536,1.4013013700000003,-5.597875220000001,-0.16615256000000003
52,2.5635,-77.9390177272,19.812571128,16.2089802924,1.1679547600000002,-8.493327920000002,0.8674141000000002
52,2.5635,-60.77769404,-9.5617191096,-10.7581304096,0.6132984200000001,-0.9040654000000001,2.3126970300000003
52,2.5635,2.7421746996,1.866401628,-1.9334006608,0.8588621300000001,1.3365507400000003,2.1269971100000005
52,2.5635,55.2359168984,-6.7190458608,-7.4991060284,1.1826152800000003,1.3524329700000002,1.5650105100000002
52,2.5635,66.3721132788,16.965112234,22.6743869576,1.3524329700000002,1.7592624000000003,0.39216891000000004
52,2.5635,9.8536434668,21.3104780756,19.046867896,1.4220704400000002,-1.0457837600000002,0.7342477100000001
52,2.5635,-35.150563994,24.4498613268,-2.0530417908,1.7555972700000002,-2.3188055800000003,0.26755449000000003
52,2.5635,-89.9844866956,26.8857547336,-19.8269280636,2.2699371800000003,2.4910666900000002,0.35307419000000007
52,2.5635,-45.3727021412,16.0271257748,30.704699603199998,2.3298009700000004,9.339972950000002,0.3567393200000001
52,2.5635,82.743805508,14.261222695999999,4.2209390664,1.3499895500000003,12.944017450000002,0.8771877800000002
52,2.5635,94.9519864132,33.781869466799996,7.350751027199999,1.1166429400000002,3.2912867400000003,0.55709976
52,2.5635,3.7088750299999997,-7.1258257028,20.1810658084,2.6535541200000003,-7.982653140000001,0.5754254100000001
52,2.5635,-135.290189804,-14.2755796316,-0.0861416136,2.8759053400000005,-9.393728190000001,1.1313034600000003
52,2.5635,-132.0311654228,5.3982077855999995,-1.7515461432,1.6554170500000003,0.9236127600000001,2.0769070000000003
53,2.6101,21.5880454972,11.8636144508,19.8939270964,1.04334034,7.220306100000001,1.4880427800000002
53,2.6101,93.49715027239999,60.8446930728,6.0155560164,1.0751048,1.0384535000000001,1.3316639000000001
53,2.6101,16.7114730384,31.8197549348,5.4508498828,1.7690360800000002,-7.601479620000001,1.7372716200000002
53,2.6101,-70.181486858,4.594219392,1.8711872732,1.3157816700000002,-10.063225270000002,0.9590423500000002
53,2.6101,-65.7356224672,-22.516460666,-7.4177500599999995,1.6517519200000004,-4.708470340000001,-1.2241534200000002
53,2.6101,3.6035908356,3.6275190615999997,2.584248408,1.5405763100000003,2.3530134600000006,-2.0365905700000004
53,2.6101,17.0225399764,-4.5846481016,17.46760498,2.1074497500000002,2.3151404500000003,-1.6224308800000002
53,2.6101,16.0845535172,11.557333158,-9.0735832992,2.0182649200000005,1.4917079100000001,-1.4281789900000001
53,2.6101,-11.3515504144,13.6295175296,3.2255248648,2.2699371800000003,0.6389543300000001,-1.7458235900000003
53,2.6101,-28.4075899072,9.8297152408,-11.341979124,1.6493085000000003,2.04758596,-1.8203479000000002
53,2.6101,22.4973180852,16.3525496484,8.1212399044,1.1032041300000002,5.555115370000001,-0.9627074800000002
