Packet_ID,Rx_Time_Sec,Acc_X,Acc_Y,Acc_Z,Gyro_X,Gyro_Y,Gyro_Z
0,0.1235,1.3591232368,-2.1870398563999998,3.972085516,1.7238328100000002,-0.17103940000000004,-0.06597234
0,0.1235,1.3351950108,-2.1583259852,3.9768711612,1.7018420300000003,-0.17470453000000002,-0.06597234
0,0.1235,1.3447663012,-2.1343977592,4.0103706776,1.6786295400000002,-0.17714795000000003,-0.06475063000000002
0,0.1235,1.339980656,-2.1152551784,4.0534414843999995,1.6505302100000003,-0.17959137000000003,-0.05986379000000001
0,0.1235,1.3591232368,-2.1008982428,4.091726646,1.6199874600000002,-0.18325650000000002,-0.05619866000000001
0,0.1235,1.3591232368,-2.081755662,4.115654872,1.5833361600000002,-0.18814334000000002,-0.048868400000000006
0,0.1235,1.3447663012,-2.105683888,4.0965122912,1.5454631500000002,-0.19058676000000002,-0.046424980000000005
0,0.1235,1.4021940436,-2.0913269523999998,4.0725840652,1.4953730400000003,-0.19180847000000004,-0.04398156000000001
0,0.1235,1.4739787216,-2.081755662,4.0869410008,1.4330658300000003,-0.18936505000000003,-0.04520327000000001
0,0.1235,1.5170495284,-2.0673987264,4.0630127748,1.3707586200000001,-0.18447821000000003,-0.05131182000000001
0,0.1235,1.5888342064,-2.0865413072,4.0869410008,1.3072297000000002,-0.18325650000000002,-0.05864208000000001
0,0.1235,1.5936198516,-2.1104695332,4.1204405172,1.2473659100000003,-0.17592624000000004,-0.06963747
0,0.1235,1.6127624324,-2.129612114,4.1443687432,1.1960540900000003,-0.17226111000000002,-0.07941115000000001
0,0.1235,1.6654045296,-2.177468566,4.1970108404,1.1594027900000001,-0.16615256000000003,-0.09162825000000001
0,0.1235,1.6414763036,-2.225325018,4.2400816472,1.1374120100000003,-0.16737427000000002,-0.10262364000000002
0,0.1235,1.5888342064,-2.2444675988,4.2879380992,1.1313034600000003,-0.17470453000000002,-0.11239732000000002
0,0.1235,1.5984054967999999,-2.2875384056,4.3357945512,1.1374120100000003,-0.18936505000000003,-0.12461442000000002
0,0.1235,1.5840485612,-2.3018953412,4.3597227772,1.1471856900000001,-0.20524728000000003,-0.1343881
0,0.1235,1.5696916256,-2.3258235672,4.3980079388,1.15818108,-0.22235122000000004,-0.14294007000000003
0,0.1235,1.5696916256,-2.3353948576,4.4315074552,1.1728416000000002,-0.24067687000000004,-0.15027033000000004
1,0.2419,1.5840485612,-2.2827527603999997,4.4362931003999995,1.1887238300000003,-0.25533739000000005,-0.15637888000000003
1,0.2419,1.5888342064,-2.27318147,4.4219361648,1.2046060600000001,-0.26755449000000003,-0.15760059
1,0.2419,1.5601203352,-2.2540388892,4.4171505196,1.2180448700000002,-0.27977159000000007,-0.15637888000000003
1,0.2419,1.5409777544,-2.2061824372,4.4410787456,1.2265968400000002,-0.28710185000000005,-0.15637888000000003
1,0.2419,1.5744772707999999,-2.201396792,4.4362931003999995,1.23514881,-0.29565382000000007,-0.15149204000000002
1,0.2419,1.5601203352,-2.1966111468,4.4362931003999995,1.2449224900000002,-0.30176237000000006,-0.14660520000000002
1,0.2419,1.5601203352,-2.2301106632,4.4697926167999995,1.26080472,-0.30298408000000004,-0.13927494
1,0.2419,1.5218351736,-2.2301106632,4.4410787456,1.2889040500000002,-0.30664921000000006,-0.13316639000000002
1,0.2419,1.5361921092,-2.201396792,4.4458643908,1.3182250900000003,-0.30787092000000005,-0.12583613000000002
1,0.2419,1.4883356572,-2.2061824372,4.450650036,1.3536546800000002,-0.30664921000000006,-0.11850587000000001
1,0.2419,1.483550012,-2.2061824372,4.4362931003999995,1.3915276900000002,-0.3103143400000001,-0.11361903000000002
1,0.2419,1.4691930764,-2.2205393728,4.4219361648,1.4330658300000003,-0.30909263000000003,-0.10873219000000002
1,0.2419,1.4404792052,-2.2109680824,4.4458643908,1.4770473900000003,-0.31275776000000005,-0.10384535000000002
1,0.2419,1.4165509792,-2.15354034,4.4697926167999995,1.5283592100000003,-0.31397947000000004,-0.09773680000000001
1,0.2419,1.4165509792,-2.1439690496,4.4362931003999995,1.5833361600000002,-0.31642289000000007,-0.09284996000000001
1,0.2419,1.3974083983999999,-2.0865413072,4.4602213264,1.6370914000000003,-0.31886631000000004,-0.08674141000000002
1,0.2419,1.3974083983999999,-2.0291135648,4.4697926167999995,1.6798512500000002,-0.32253144000000006,-0.07818944000000001
1,0.2419,1.3734801723999999,-1.9908284031999999,4.4841495524,1.7189459700000003,-0.32253144000000006,-0.06841576
1,0.2419,1.4021940436,-1.9525432416,4.5128634236,1.7507104300000003,-0.32497486000000003,-0.05742037000000001
1,0.2419,1.3782658176,-1.9046867896,4.5415772948,1.7714795000000003,-0.32863999000000005,-0.04275985000000001
2,0.3471,1.387837108,-1.8472590472,4.5990050371999995,1.7836966000000003,-0.33352683000000005,-0.029321040000000007
2,0.3471,1.3782658176,-1.7898313047999999,4.6229332632,1.7824748900000003,-0.33841367000000006,-0.014660520000000003
2,0.3471,1.3686945272,-1.746760498,4.5655055207999995,1.7739229200000002,-0.34330051000000006,-0.0012217100000000002
2,0.3471,1.3926227532,-1.6893327556,4.5846481016,1.7555972700000002,-0.34574393000000003,0.010995390000000002
2,0.3471,1.3926227532,-1.6606188844,4.6277189084,1.7311630700000002,-0.34940906000000005,0.020769070000000004
2,0.3471,1.3974083983999999,-1.6366906584,4.6372901988,1.7067288700000003,-0.3518524800000001,0.026877620000000005
2,0.3471,1.3974083983999999,-1.6414763036,4.6612184247999995,1.6859598000000002,-0.3518524800000001,0.03298617
2,0.3471,1.4213366243999999,-1.6175480776,4.6707897152,1.6664124400000002,-0.3469656400000001,0.037873010000000006
2,0.3471,1.3974083983999999,-1.5984054967999999,4.6707897152,1.6468650800000002,-0.34207880000000007,0.04153814000000001
2,0.3471,1.4309079148,-1.5505490447999999,4.7042892316,1.6273177200000002,-0.33719196000000007,0.04520327000000001
2,0.3471,1.4069796888,-1.531406464,4.689932296,1.6089920700000002,-0.32986170000000004,0.047646690000000005
2,0.3471,1.4213366243999999,-1.5170495284,4.6755753604,1.5894447100000002,-0.32130973000000007,0.05009011000000001
2,0.3471,1.3830514628,-1.4691930764,4.6803610056,1.5674539300000003,-0.31275776000000005,0.05009011000000001
2,0.3471,1.4261222696,-1.4165509792,4.6803610056,1.5466848600000003,-0.3054275000000001,0.05253353000000001
2,0.3471,1.43569356,-1.3974083983999999,4.7090748768,1.5222506600000003,-0.29565382000000007,0.05619866000000001
2,0.3471,1.4165509792,-1.3830514628,4.7282174576,1.4965947500000003,-0.28954527,0.05864208000000001
2,0.3471,1.411765334,-1.3447663012,4.7904308451999995,1.4672737100000002,-0.27977159000000007,0.05986379000000001
2,0.3471,1.4213366243999999,-1.3208380752,4.7952164904,1.4379526700000003,-0.27244133000000004,0.06352892000000002
2,0.3471,1.4213366243999999,-1.3256237203999999,4.8382872972,1.4074099200000003,-0.26511107000000006,0.06230721000000001
2,0.3471,1.411765334,-1.3016954943999999,4.8478585876,1.3719803300000002,-0.26022423000000006,0.06352892000000002
3,0.7296,1.4452648504,-1.2969098492,4.8717868136,1.3377724500000001,-0.25411568000000007,0.06475063000000002
3,0.7296,1.4165509792,-1.268195978,4.8957150396,1.3023428600000002,-0.25045055000000005,0.06230721000000001
3,0.7296,1.4739787216,-1.2586246876,4.90528633,1.2656915600000003,-0.24800713000000005,0.06230721000000001
3,0.7296,1.4644074312,-1.2394821068,4.8717868136,1.2339271000000003,-0.24434200000000003,0.06230721000000001
3,0.7296,1.483550012,-1.2059825903999999,4.8717868136,1.2009409300000002,-0.24312029000000004,0.05986379000000001
3,0.7296,1.4787643668,-1.2059825903999999,4.857429878,1.17161989,-0.24067687000000004,0.05986379000000001
3,0.7296,1.5122638832,-1.2155538808,4.8526442327999995,1.1484074000000002,-0.23701174000000003,0.05986379000000001
3,0.7296,1.4931213024,-1.2251251712,4.7904308451999995,1.1349685900000002,-0.23212490000000005,0.05619866000000001
3,0.7296,1.4979069476,-1.2394821068,4.7521456836,1.1251949100000003,-0.22479464000000005,0.05375524000000001
3,0.7296,1.4883356572,-1.220339526,4.6995035864,1.1166429400000002,-0.21624267000000003,0.05497695000000001
3,0.7296,1.5361921092,-1.1868400096,4.66600407,1.1093126800000002,-0.20646899000000005,0.05253353000000001
3,0.7296,1.5218351736,-1.2059825903999999,4.642075844,1.1032041300000002,-0.19303018000000002,0.05009011000000001
3,0.7296,1.5218351736,-1.2155538808,4.594219392,1.0995390000000003,-0.17836966000000004,0.04275985000000001
3,0.7296,1.531406464,-1.2059825903999999,4.5415772948,1.0897653200000001,-0.16370914000000003,0.036651300000000005
3,0.7296,1.5601203352,-1.2346964616,4.54636294,1.0751048,-0.14660520000000002,0.030542750000000004
3,0.7296,1.5696916256,-1.220339526,4.4793639072,1.0604442800000002,-0.12950126000000003,0.020769070000000004
3,0.7296,1.5649059804,-1.220339526,4.4650069716,1.04334034,-0.11361903000000002,0.014660520000000003
3,0.7296,1.5984054967999999,-1.2251251712,4.4458643908,1.0262364000000002,-0.09895851000000001,0.006108550000000001
3,0.7296,1.6319050132,-1.2538390423999999,4.4123648744,1.0079107500000002,-0.08551970000000002,-0.004886840000000001
3,0.7296,1.651047594,-1.2634103328,4.402793584,0.9944719400000002,-0.07330260000000001,-0.012217100000000002
4,1.0135,1.6797614652,-1.2586246876,4.3980079388,0.9859199700000002,-0.06475063000000002,-0.018325650000000002
4,1.0135,1.6893327556,-1.2490533972,4.402793584,0.9810331300000001,-0.05864208000000001,-0.025655910000000004
4,1.0135,1.6606188844,-1.2251251712,4.402793584,0.9773680000000001,-0.05864208000000001,-0.03176446000000001
4,1.0135,1.651047594,-1.172483074,4.4171505196,0.9749245800000002,-0.05497695000000001,-0.036651300000000005
4,1.0135,1.6797614652,-1.1820543644,4.42672181,0.9675943200000001,-0.05619866000000001,-0.04275985000000001
4,1.0135,1.6606188844,-1.1581261384,4.4410787456,0.9590423500000002,-0.05742037000000001,-0.046424980000000005
4,1.0135,1.603191142,-1.1389835576,4.474578262,0.9419384100000001,-0.05986379000000001,-0.05375524000000001
4,1.0135,1.5936198516,-1.1581261384,4.4937208428,0.9236127600000001,-0.06475063000000002,-0.06108550000000001
4,1.0135,1.6223337227999999,-1.172483074,4.5559342304,0.9004002700000001,-0.07085918000000001,-0.06475063000000002
4,1.0135,1.6127624324,-1.1772687192,4.5607198756,0.8808529100000001,-0.07818944000000001,-0.07085918000000001
4,1.0135,1.6175480776,-1.1676974288,4.5750768112,0.8600838400000002,-0.08307628000000002,-0.07818944000000001
4,1.0135,1.6558332392,-1.1533404932,4.570291166,0.8429799000000001,-0.08674141000000002,-0.08185457000000002
4,1.0135,1.6558332392,-1.1820543644,4.5894337468,0.8295410900000001,-0.08918483000000002,-0.08551970000000002
4,1.0135,1.6319050132,-1.1581261384,4.594219392,0.8148805700000001,-0.08796312000000002,-0.08551970000000002
4,1.0135,1.6654045296,-1.1676974288,4.5894337468,0.8063286000000002,-0.08429799000000002,-0.08796312000000002
4,1.0135,1.6127624324,-1.1916256548,4.594219392,0.8026634700000002,-0.07818944000000001,-0.08674141000000002
4,1.0135,1.6654045296,-1.1820543644,4.570291166,0.8014417600000001,-0.06841576,-0.08918483000000002
4,1.0135,1.6366906584,-1.1820543644,4.5607198756,0.8002200500000002,-0.05742037000000001,-0.09040654000000002
4,1.0135,1.651047594,-1.172483074,4.594219392,0.8051068900000001,-0.04520327000000001,-0.09162825000000001
4,1.0135,1.6462619487999999,-1.1676974288,4.5655055207999995,0.8099937300000001,-0.03298617,-0.09162825000000001
5,1.3382,1.6462619487999999,-1.1533404932,4.6037906824,0.8197674100000001,-0.020769070000000004,-0.09162825000000001
5,1.3382,1.6701901747999999,-1.1437692028,4.6277189084,0.8307628000000001,-0.00855197,-0.09284996000000001
5,1.3382,1.6701901747999999,-1.1294122672,4.6277189084,0.8442016100000002,0.003665130000000001,-0.09284996000000001
5,1.3382,1.6414763036,-1.124626622,4.66600407,0.8588621300000001,0.014660520000000003,-0.09284996000000001
5,1.3382,1.6701901747999999,-1.1198409768,4.6612184247999995,0.8723009400000001,0.025655910000000004,-0.09040654000000002
5,1.3382,1.6893327556,-1.1054840412,4.6755753604,0.8845180400000001,0.037873010000000006,-0.08918483000000002
5,1.3382,1.6654045296,-1.100698396,4.66600407,0.8967351400000001,0.048868400000000006,-0.08674141000000002
5,1.3382,1.6654045296,-1.1150553316,4.6564327796,0.9065088200000001,0.05986379000000001,-0.08551970000000002
5,1.3382,1.6701901747999999,-1.0959127508,4.6612184247999995,0.9150607900000002,0.06841576,-0.08429799000000002
5,1.3382,1.6414763036,-1.0959127508,4.642075844,0.9236127600000001,0.07818944000000001,-0.08063286000000001
5,1.3382,1.7036896912,-1.0719845248,4.6229332632,0.9272778900000002,0.08918483000000002,-0.07696773000000001
5,1.3382,1.6893327556,-1.052841944,4.6372901988,0.9272778900000002,0.09895851000000001,-0.07696773000000001
5,1.3382,1.7084753364,-1.0624132344,4.6372901988,0.9272778900000002,0.10995390000000002,-0.07696773000000001
5,1.3382,1.7036896912,-1.0336993632,4.6229332632,0.9236127600000001,0.11972758000000001,-0.07452431000000001
5,1.3382,1.6893327556,-1.0049854919999999,4.594219392,0.9211693400000002,0.13072297000000002,-0.07452431000000001
5,1.3382,1.6797614652,-0.9858429112,4.5990050371999995,0.9162825000000001,0.14416178000000002,-0.07452431000000001
5,1.3382,1.6654045296,-0.9906285564,4.6133619728,0.9065088200000001,0.15637888000000003,-0.07452431000000001
5,1.3382,1.651047594,-0.9379864592,4.6325045536,0.8930700100000002,0.16859598000000003,-0.07574602000000001
5,1.3382,1.6127624324,-0.9379864592,4.618147618,0.8747443600000001,0.18203479000000003,-0.07696773000000001
5,1.3382,1.6414763036,-0.8662017812,4.6277189084,0.8490884500000001,0.19791702000000003,-0.08063286000000001
6,2.3315,1.6223337227999999,-0.83748791,4.6516471344,0.8185457000000002,0.21257754000000004,-0.08429799000000002
6,2.3315,1.6414763036,-0.7992027483999999,4.6851466508,0.7818944000000001,0.22968148000000005,-0.08551970000000002
6,2.3315,1.6079767872,-0.7992027483999999,4.6707897152,0.7391345500000002,0.24678542000000003,-0.09040654000000002
6,2.3315,1.5984054967999999,-0.7800601676,4.6707897152,0.6902661500000001,0.26511107000000006,-0.09407167000000001
6,2.3315,1.6079767872,-0.7800601676,4.689932296,0.6413977500000001,0.2846584300000001,-0.09895851000000001
6,2.3315,1.5936198516,-0.7465606512,4.713860522,0.5864208000000001,0.30298408000000004,-0.10262364000000002
6,2.3315,1.5601203352,-0.7130611348,4.7234318124,0.5290004300000001,0.32130973000000007,-0.10384535000000002
6,2.3315,1.5361921092,-0.7465606512,4.7425743932,0.46791493000000006,0.34574393000000003,-0.10873219000000002
6,2.3315,1.5122638832,-0.7082754896,4.7425743932,0.4092728500000001,0.37017813000000005,-0.11484074000000002
6,2.3315,1.507478238,-0.7130611348,4.7665026192,0.34452222000000005,0.39583404000000005,-0.11972758000000001
6,2.3315,1.4739787216,-0.71784678,4.7760739096,0.28221501000000004,0.42271166000000004,-0.12461442000000002
6,2.3315,1.4691930764,-0.7513462964,4.7808595548,0.21990780000000004,0.45325441000000005,-0.12827955000000002
6,2.3315,1.4261222696,-0.7848458128,4.7952164904,0.15760059,0.4825754500000001,-0.12827955000000002
6,2.3315,1.4261222696,-0.789631458,4.7904308451999995,0.10262364000000002,0.5143399100000001,-0.12950126000000003
6,2.3315,1.4739787216,-0.8087740388,4.8191447164,0.05864208000000001,0.5497695000000001,-0.12827955000000002
6,2.3315,1.43569356,-0.8422735552,4.8765724588,0.014660520000000003,0.5839773800000001,-0.12705784000000003
6,2.3315,1.4500504956,-0.8470592003999999,4.9100719752,-0.020769070000000004,0.6206286800000002,-0.12461442000000002
6,2.3315,1.5122638832,-0.861416136,4.953142782,-0.05131182000000001,0.6585016900000001,-0.12094929000000001
6,2.3315,1.4979069476,-0.8470592003999999,4.9674997176,-0.07208089000000001,0.6988181200000001,-0.11606245000000003
6,2.3315,1.5505490447999999,-0.9140582332,4.977071008,-0.07818944000000001,0.7379128400000001,-0.10873219000000002
7,2.9394,1.5601203352,-0.9188438783999999,5.0057848792,-0.07818944000000001,0.7770075600000002,-0.10262364000000002
7,2.9394,1.6079767872,-0.9140582332,5.048855686,-0.07696773000000001,0.8136588600000001,-0.09651509000000001
7,2.9394,1.5696916256,-0.9284151688,5.048855686,-0.07208089000000001,0.8515318700000002,-0.08674141000000002
7,2.9394,1.531406464,-0.9523433948,5.048855686,-0.06963747,0.8869614600000001,-0.07574602000000001
7,2.9394,1.55533469,-0.9427721044,5.0153561695999995,-0.06230721000000001,0.9480469600000001,-0.05253353000000001
7,2.9394,1.507478238,-0.9475577495999999,5.0201418148,-0.05986379000000001,0.9798114200000002,-0.04275985000000001
7,2.9394,1.5266208188,-0.9236295236,5.000999234,-0.06475063000000002,1.00546733,-0.03176446000000001
7,2.9394,1.4979069476,-0.9379864592,4.9962135888,-0.07330260000000001,1.0323449500000001,-0.021990780000000005
7,2.9394,1.4739787216,-0.9140582332,4.9387858464,-0.08307628000000002,1.0580008600000002,-0.010995390000000002
7,2.9394,1.4548361408,-0.933200814,4.90528633,-0.09407167000000001,1.08121335,-0.0024434200000000004
7,2.9394,1.4165509792,-0.9188438783999999,4.8957150396,-0.10262364000000002,1.0995390000000003,0.0012217100000000002
7,2.9394,1.4021940436,-0.8949156523999999,4.8765724588,-0.11484074000000002,1.1166429400000002,0.007330260000000002
7,2.9394,1.387837108,-0.9188438783999999,4.8478585876,-0.12583613000000002,1.1313034600000003,0.009773680000000002
7,2.9394,1.3591232368,-0.95712904,4.8430729424,-0.14049665000000003,1.14596398,0.010995390000000002
7,2.9394,1.3304093656,-0.9906285564,4.833501652,-0.14904862000000002,1.1618462100000002,0.01710394
7,2.9394,1.2825529136,-0.9619146852,4.8191447164,-0.15271375000000004,1.1789501500000001,0.023212490000000002
7,2.9394,1.244267752,-0.9714859755999999,4.8239303615999996,-0.14538349000000003,1.1936106700000002,0.026877620000000005
7,2.9394,1.2251251712,-0.9762716208,4.8143590712,-0.12583613000000002,1.2119363200000002,0.03176446000000001
7,2.9394,1.2634103328,-0.9523433948,4.7665026192,-0.10140193000000002,1.2278185500000003,0.035429590000000004
7,2.9394,1.2729816232,-0.9954142015999999,4.7712882644,-0.07330260000000001,1.2437007800000002,0.039094720000000006
8,3.5898,1.2634103328,-0.95712904,4.7330031028,-0.046424980000000005,1.2583613000000002,0.04275985000000001
8,3.5898,1.2873385588,-0.9475577495999999,4.6947179411999995,-0.015882230000000004,1.2656915600000003,0.046424980000000005
8,3.5898,1.2634103328,-0.9523433948,4.7665026192,0.015882230000000004,1.2742435300000001,0.046424980000000005
8,3.5898,1.2777672683999999,-0.9284151688,4.7521456836,0.04520327000000001,1.2827955000000002,0.046424980000000005
8,3.5898,1.2538390423999999,-0.9140582332,4.7665026192,0.07085918000000001,1.2913474700000003,0.04520327000000001
8,3.5898,1.1916256548,-0.8949156523999999,4.7330031028,0.09162825000000001,1.2962343100000002,0.046424980000000005
8,3.5898,1.1676974288,-0.8901300072,4.7282174576,0.10384535000000002,1.2986777300000003,0.04398156000000001
8,3.5898,1.1437692028,-0.8805587168,4.713860522,0.11117561000000002,1.3023428600000002,0.04031643000000001
8,3.5898,1.1820543644,-0.8805587168,4.713860522,0.11361903000000002,1.3035645700000003,0.037873010000000006
8,3.5898,1.100698396,-0.8470592003999999,4.7090748768,0.11117561000000002,1.3035645700000003,0.035429590000000004
8,3.5898,1.0911271056,-0.8422735552,4.7042892316,0.10506706000000002,1.3011211500000002,0.03176446000000001
8,3.5898,1.0863414604,-0.83748791,4.6803610056,0.09284996000000001,1.2974560200000003,0.028099330000000006
8,3.5898,1.052841944,-0.8327022648,4.66600407,0.07941115000000001,1.2925691800000003,0.024434200000000003
8,3.5898,1.0384850084,-0.8231309743999999,4.6803610056,0.06475063000000002,1.28646063,0.019547360000000003
8,3.5898,1.0145567824,-0.813559684,4.6803610056,0.046424980000000005,1.2766869500000002,0.01710394
8,3.5898,0.9619146852,-0.8039883936,4.6947179411999995,0.028099330000000006,1.2693566900000002,0.013438810000000002
8,3.5898,0.9236295236,-0.7704888772,4.6995035864,0.007330260000000002,1.2583613000000002,0.010995390000000002
8,3.5898,0.8709874263999999,-0.7704888772,4.689932296,-0.018325650000000002,1.2461442000000003,0.00855197
8,3.5898,0.8709874263999999,-0.7752745223999999,4.7042892316,-0.04031643000000001,1.2302619700000001,0.00855197
8,3.5898,0.8183453292,-0.7226324252,4.7234318124,-0.06597234,1.2143797400000003,0.00855197
9,3.6446,0.7800601676,-0.71784678,4.7425743932,-0.08918483000000002,1.1972758000000001,0.006108550000000001
9,3.6446,0.741775006,-0.7369893608,4.7521456836,-0.11361903000000002,1.1789501500000001,0.00855197
9,3.6446,0.7274180704,-0.7322037156,4.761716974,-0.13927494,1.1594027900000001,0.012217100000000002
9,3.6446,0.6795616184,-0.7513462964,4.7760739096,-0.16248743000000002,1.1386337200000003,0.01710394
9,3.6446,0.6317051664,-0.7513462964,4.7808595548,-0.17959137000000003,1.1154212300000002,0.021990780000000005
9,3.6446,0.6508477471999999,-0.7513462964,4.7856452,-0.19547360000000003,1.0909870300000002,0.025655910000000004
9,3.6446,0.6173482308,-0.7704888772,4.809573426,-0.21013412000000004,1.06899625,0.03176446000000001
9,3.6446,0.622133876,-0.7561319416,4.8143590712,-0.21868609000000003,1.0421186300000003,0.04031643000000001
9,3.6446,0.6269195211999999,-0.7609175868,4.8382872972,-0.22723806000000005,1.0152410100000002,0.046424980000000005
9,3.6446,0.6412764568,-0.765703232,4.8239303615999996,-0.23579003000000004,0.9908068100000001,0.05619866000000001
9,3.6446,0.59820565,-0.7561319416,4.833501652,-0.24067687000000004,0.9639291900000002,0.06230721000000001
9,3.6446,0.5886343596,-0.7704888772,4.8287160068,-0.24556371000000005,0.9382732800000002,0.07085918000000001
9,3.6446,0.5934200048,-0.7561319416,4.7808595548,-0.24922884000000003,0.9150607900000002,0.07941115000000001
9,3.6446,0.574277424,-0.7704888772,4.737788748,-0.25411568000000007,0.8894048800000002,0.08674141000000002
9,3.6446,0.5838487144,-0.7752745223999999,4.7425743932,-0.25655910000000004,0.8686358100000001,0.09284996000000001
9,3.6446,0.59820565,-0.7944171032,4.7282174576,-0.26022423000000006,0.8490884500000001,0.09895851000000001
9,3.6446,0.59820565,-0.83748791,4.7042892316,-0.26144594000000004,0.8319845100000002,0.10628877000000002
9,3.6446,0.6269195211999999,-0.8566304908,4.689932296,-0.26022423000000006,0.8173239900000001,0.11117561000000002
9,3.6446,0.59820565,-0.861416136,4.6755753604,-0.25900252000000007,0.8051068900000001,0.11361903000000002
9,3.6446,0.6269195211999999,-0.8757730716,4.6803610056,-0.25411568000000007,0.7965549200000002,0.11239732000000002
10,3.6925,0.6508477471999999,-0.9284151688,4.6612184247999995,-0.25045055000000005,0.7880029500000001,0.11239732000000002
10,3.6925,0.6412764568,-0.9475577495999999,4.642075844,-0.24067687000000004,0.7818944000000001,0.10873219000000002
10,3.6925,0.6747759731999999,-1.0049854919999999,4.6803610056,-0.22479464000000005,0.7794509800000001,0.10018022000000001
10,3.6925,0.7034898444,-1.0145567824,4.7330031028,-0.19791702000000003,0.7770075600000002,0.09162825000000001
10,3.6925,0.741775006,-1.0384850084,4.7042892316,-0.17226111000000002,0.7782292700000001,0.08063286000000001
10,3.6925,0.7848458128,-1.0432706536,4.7090748768,-0.14660520000000002,0.7794509800000001,0.07208089000000001
10,3.6925,0.7992027483999999,-1.052841944,4.7330031028,-0.12461442000000002,0.7818944000000001,0.06230721000000001
10,3.6925,0.8518448456,-1.0480562988,4.7330031028,-0.10262364000000002,0.7867812400000002,0.05253353000000001
10,3.6925,0.8566304908,-1.028913718,4.6803610056,-0.08307628000000002,0.7941115000000001,0.04153814000000001
10,3.6925,0.8279166196,-1.0097711372,4.6851466508,-0.06475063000000002,0.8002200500000002,0.029321040000000007
10,3.6925,0.8470592003999999,-1.0001998468,4.66600407,-0.05009011000000001,0.8038851800000001,0.01710394
10,3.6925,0.8231309743999999,-0.9954142015999999,4.689932296,-0.04031643000000001,0.8099937300000001,0.007330260000000002
10,3.6925,0.813559684,-0.9858429112,4.6707897152,-0.03298617,0.8173239900000001,-0.004886840000000001
10,3.6925,0.7752745223999999,-0.9762716208,4.6803610056,-0.035429590000000004,0.8222108300000002,-0.014660520000000003
10,3.6925,0.7752745223999999,-0.9954142015999999,4.6803610056,-0.037873010000000006,0.8307628000000001,-0.023212490000000002
10,3.6925,0.7369893608,-0.9523433948,4.6851466508,-0.04520327000000001,0.8368713500000001,-0.03420788
10,3.6925,0.6987041991999999,-0.9667003304,4.7186461672,-0.05864208000000001,0.8417581900000002,-0.04031643000000001
10,3.6925,0.6843472636,-0.9523433948,4.7282174576,-0.07208089000000001,0.8478667400000002,-0.048868400000000006
10,3.6925,0.6843472636,-0.9523433948,4.7282174576,-0.08796312000000002,0.8515318700000002,-0.05497695000000001
10,3.6925,0.6795616184,-0.9188438783999999,4.8000021356,-0.10262364000000002,0.8564187100000001,-0.06230721000000001
11,3.9856,0.6269195211999999,-0.8997012976,4.8143590712,-0.11972758000000001,0.8613055500000001,-0.06963747
11,3.9856,0.6077769404,-0.9188438783999999,4.809573426,-0.13683152,0.8649706800000001,-0.07818944000000001
11,3.9856,0.622133876,-0.8805587168,4.8239303615999996,-0.15515717000000004,0.8686358100000001,-0.08551970000000002
11,3.9856,0.6173482308,-0.9044869428,4.881358104,-0.17103940000000004,0.8710792300000001,-0.09407167000000001
11,3.9856,0.5790630692,-0.8949156523999999,4.8670011684,-0.19180847000000004,0.8723009400000001,-0.10018022000000001
11,3.9856,0.5886343596,-0.9188438783999999,4.881358104,-0.21135583000000002,0.8735226500000002,-0.10262364000000002
11,3.9856,0.5647061336,-0.9044869428,4.8670011684,-0.23212490000000005,0.8759660700000002,-0.10506706000000002
11,3.9856,0.5312066172,-0.8997012976,4.8909293944,-0.25411568000000007,0.8759660700000002,-0.10995390000000002
11,3.9856,0.5024927459999999,-0.8901300072,4.90528633,-0.27488475000000007,0.8759660700000002,-0.11117561000000002
11,3.9856,0.47856452,-0.9044869428,4.90528633,-0.29687553000000005,0.8759660700000002,-0.11239732000000002
11,3.9856,0.45942193919999996,-0.885344362,4.8957150396,-0.31764460000000005,0.8759660700000002,-0.11606245000000003
11,3.9856,0.35892339,-0.8709874263999999,4.8861437491999995,-0.34085709000000003,0.8759660700000002,-0.11728416000000003
11,3.9856,0.35892339,-0.8662017812,4.8909293944,-0.3616261600000001,0.8796312000000002,-0.11728416000000003
11,3.9856,0.311066938,-0.8757730716,4.8957150396,-0.3836169400000001,0.8796312000000002,-0.11972758000000001
11,3.9856,0.2679961312,-0.8949156523999999,4.8861437491999995,-0.40072088000000006,0.8820746200000001,-0.12217100000000002
11,3.9856,0.2679961312,-0.885344362,4.8478585876,-0.41782482000000004,0.8881831700000001,-0.12583613000000002
11,3.9856,0.22971096959999998,-0.8805587168,4.881358104,-0.43248534000000005,0.8930700100000002,-0.12950126000000003
11,3.9856,0.2009970984,-0.9140582332,4.8622155232,-0.44836757000000005,0.8991785600000002,-0.13072297000000002
11,3.9856,0.1722832272,-0.909272588,4.8670011684,-0.4642498000000001,0.9077305300000001,-0.13560981000000003
11,3.9856,0.1962114532,-0.909272588,4.8430729424,-0.4801320300000001,0.9138390800000001,-0.14416178000000002
12,4.1609,0.1387837108,-0.8997012976,4.833501652,-0.4960142600000001,0.9223910500000001,-0.14782691000000003
12,4.1609,0.11964113,-0.9188438783999999,4.833501652,-0.5106747800000001,0.9321647300000001,-0.15271375000000004
12,4.1609,0.167497582,-0.9379864592,4.8143590712,-0.52777872,0.9394949900000001,-0.15882230000000003
12,4.1609,0.1579262916,-0.933200814,4.8239303615999996,-0.5436609500000001,0.9443818300000002,-0.16370914000000003
12,4.1609,0.167497582,-0.9523433948,4.809573426,-0.5595431800000001,0.9492686700000001,-0.17103940000000004
12,4.1609,0.1866401628,-0.981057266,4.7856452,-0.5754254100000001,0.9517120900000001,-0.17714795000000003
12,4.1609,0.1818545176,-0.9714859755999999,4.7569313287999995,-0.5937510600000001,0.9541555100000002,-0.18203479000000003
12,4.1609,0.1770688724,-0.9954142015999999,4.7569313287999995,-0.61452013,0.9492686700000001,-0.18814334000000002
12,4.1609,0.1962114532,-0.9523433948,4.737788748,-0.6340674900000001,0.9480469600000001,-0.19425189000000004
12,4.1609,0.1818545176,-0.9762716208,4.7425743932,-0.6511714300000001,0.9419384100000001,-0.20036044000000003
12,4.1609,0.1818545176,-0.9762716208,4.7521456836,-0.6731622100000001,0.9370515700000002,-0.20769070000000003
12,4.1609,0.1770688724,-0.9906285564,4.7569313287999995,-0.6927095700000001,0.9309430200000002,-0.21502096000000004
12,4.1609,0.167497582,-0.9858429112,4.7569313287999995,-0.7147003500000001,0.9260561800000001,-0.22601635000000003
12,4.1609,0.16271193679999998,-1.0097711372,4.7569313287999995,-0.7366911300000001,0.9211693400000002,-0.23334661000000004
12,4.1609,0.1579262916,-1.0241280728,4.761716974,-0.7599036200000001,0.9150607900000002,-0.24312029000000004
12,4.1609,0.1339980656,-0.9858429112,4.737788748,-0.7782292700000001,0.9113956600000002,-0.25167226000000004
12,4.1609,0.11964113,-1.0001998468,4.737788748,-0.7965549200000002,0.9077305300000001,-0.26266765000000003
12,4.1609,0.11485548479999999,-1.0049854919999999,4.7569313287999995,-0.8136588600000001,0.9052871100000002,-0.27244133000000004
12,4.1609,0.0861416136,-0.9906285564,4.761716974,-0.8307628000000001,0.8991785600000002,-0.28099330000000006
12,4.1609,0.08135596839999999,-0.9954142015999999,4.7425743932,-0.8490884500000001,0.8967351400000001,-0.29076698000000006
13,4.9308,0.0909272588,-1.0193424276,4.737788748,-0.8686358100000001,0.8906265900000001,-0.29565382000000007
13,4.9308,0.062213387599999996,-1.028913718,4.7282174576,-0.8918483000000001,0.8808529100000001,-0.29809724000000004
13,4.9308,0.0382851616,-1.0432706536,4.713860522,-0.9113956600000002,0.8698575200000002,-0.30054066000000007
13,4.9308,0.0334995164,-1.0480562988,4.713860522,-0.9309430200000002,0.8576404200000002,-0.30420579000000003
13,4.9308,0.0430708068,-1.0576275892,4.7186461672,-0.9431601200000002,0.8417581900000002,-0.3054275000000001
13,4.9308,0.014356935599999999,-1.0959127508,4.7186461672,-0.9578206400000001,0.8222108300000002,-0.30909263000000003
13,4.9308,0.0047856452,-1.0815558152,4.7521456836,-0.9761462900000002,0.8026634700000002,-0.30664921000000006
13,4.9308,-0.0095712904,-1.124626622,4.7760739096,-0.9956936500000002,0.7831161100000001,-0.30298408000000004
13,4.9308,-0.023928226,-1.1341979124,4.8143590712,-1.0201278500000002,0.7623470400000001,-0.29931895000000003
13,4.9308,-0.028713871199999998,-1.124626622,4.833501652,-1.0408969200000002,0.7403562600000001,-0.29443211
13,4.9308,-0.0382851616,-1.1389835576,4.833501652,-1.0653311200000002,0.7208089000000001,-0.29198869000000005
13,4.9308,-0.023928226,-1.1629117836,4.8478585876,-1.0909870300000002,0.6975964100000002,-0.28588014000000006
13,4.9308,-0.0430708068,-1.2251251712,4.881358104,-1.1154212300000002,0.6768273400000001,-0.27977159000000007
13,4.9308,-0.028713871199999998,-1.1772687192,4.8717868136,-1.1374120100000003,0.6572799800000001,-0.27121962000000005
13,4.9308,-0.028713871199999998,-1.1964113,4.8765724588,-1.1606245000000002,0.6352892000000001,-0.26511107000000006
13,4.9308,-0.0382851616,-1.2538390423999999,4.8670011684,-1.1801718600000002,0.6169635500000001,-0.25900252000000007
13,4.9308,-0.023928226,-1.268195978,4.8622155232,-1.1960540900000003,0.5974161900000001,-0.25411568000000007
13,4.9308,-0.057427742399999995,-1.3064811396,4.8143590712,-1.2119363200000002,0.5778688300000001,-0.24556371000000005
13,4.9308,-0.062213387599999996,-1.3064811396,4.8000021356,-1.2217100000000003,0.5583214700000001,-0.24556371000000005
13,4.9308,-0.028713871199999998,-1.339980656,4.761716974,-1.22904026,0.5424392400000001,-0.24312029000000004
14,5.1433,-0.0334995164,-1.3351950108,4.7856452,-1.23514881,0.5265570100000001,-0.24556371000000005
14,5.1433,-0.047856452,-1.3830514628,4.7330031028,-1.2375922300000002,0.5131182000000001,-0.24922884000000003
14,5.1433,-0.057427742399999995,-1.4021940436,4.7234318124,-1.2437007800000002,0.49967939000000006,-0.25411568000000007
14,5.1433,-0.0382851616,-1.411765334,4.6995035864,-1.2473659100000003,0.4899057100000001,-0.26144594000000004
14,5.1433,-0.0095712904,-1.43569356,4.66600407,-1.2522527500000002,0.4801320300000001,-0.27244133000000004
14,5.1433,-0.0191425808,-1.4309079148,4.642075844,-1.2620264300000001,0.47280177000000007,-0.28099330000000006
14,5.1433,-0.0191425808,-1.4452648504,4.618147618,-1.2766869500000002,0.4642498000000001,-0.29076698000000006
14,5.1433,-0.0382851616,-1.4500504956,4.6037906824,-1.2950126000000002,0.45814125000000006,-0.29809724000000004
14,5.1433,-0.0334995164,-1.4644074312,4.5798624564,-1.3157816700000002,0.4508109900000001,-0.3054275000000001
14,5.1433,-0.028713871199999998,-1.4787643668,4.5798624564,-1.3402158700000002,0.44348073000000005,-0.31520118
14,5.1433,-0.014356935599999999,-1.5026925928,4.5655055207999995,-1.3646500700000002,0.4337070500000001,-0.32497486000000003
14,5.1433,-0.028713871199999998,-1.5218351736,4.5750768112,-1.3866408500000003,0.42637679000000006,-0.33352683000000005
14,5.1433,-0.0191425808,-1.531406464,4.5846481016,-1.4110750500000002,0.41782482000000004,-0.34330051000000006
14,5.1433,-0.0526420972,-1.5601203352,4.594219392,-1.4355092500000002,0.41049456000000006,-0.35063077000000004
14,5.1433,-0.071784678,-1.5840485612,4.6037906824,-1.4587217400000003,0.4043860100000001,-0.35796103000000007
14,5.1433,-0.047856452,-1.5936198516,4.642075844,-1.4819342300000002,0.3982774600000001,-0.36040445000000004
14,5.1433,-0.0669990328,-1.6079767872,4.6468614892,-1.5027033000000003,0.39461233000000007,-0.36529129000000005
14,5.1433,-0.1052841944,-1.6079767872,4.6707897152,-1.5271375000000003,0.39094720000000005,-0.36895642000000006
14,5.1433,-0.11485548479999999,-1.6366906584,4.6755753604,-1.5491282800000004,0.3872820700000001,-0.37139984000000004
14,5.1433,-0.11964113,-1.651047594,4.7090748768,-1.5698973500000002,0.38606036000000005,-0.37139984000000004
15,5.5051,-0.1052841944,-1.7180466267999999,4.7090748768,-1.5870012900000003,0.38483865000000006,-0.37139984000000004
15,5.5051,-0.1100698396,-1.7324035624,4.7282174576,-1.5979966800000003,0.38483865000000006,-0.3677347100000001
15,5.5051,-0.11485548479999999,-1.7563317884,4.7473600384,-1.6041052300000003,0.3823952300000001,-0.3628478700000001
15,5.5051,-0.12442677519999999,-1.79461695,4.7330031028,-1.6077703600000002,0.37995181000000006,-0.35429590000000005
15,5.5051,-0.12442677519999999,-1.8233308212,4.7665026192,-1.6077703600000002,0.37873010000000007,-0.34330051000000006
15,5.5051,-0.1100698396,-1.8520446924,4.7234318124,-1.6016618100000002,0.37628668000000004,-0.33352683000000005
15,5.5051,-0.1052841944,-1.8759729184,4.7473600384,-1.5943315500000002,0.37017813000000005,-0.32253144000000006
15,5.5051,-0.12442677519999999,-1.8999011444,4.7330031028,-1.5808927400000004,0.3616261600000001,-0.30787092000000005
15,5.5051,-0.1339980656,-1.9238293704,4.7330031028,-1.5601236700000003,0.35429590000000005,-0.29809724000000004
15,5.5051,-0.1052841944,-1.9525432416,4.6995035864,-1.5320243400000002,0.34574393000000003,-0.28710185000000005
15,5.5051,-0.1387837108,-1.9669001771999999,4.6803610056,-1.5027033000000003,0.33230512000000006,-0.27610646000000005
15,5.5051,-0.12442677519999999,-1.9908284031999999,4.642075844,-1.4636085800000003,0.31642289000000007,-0.26755449000000003
15,5.5051,-0.12442677519999999,-2.0291135648,4.6516471344,-1.4171836000000002,0.30054066000000007,-0.25778081
15,5.5051,-0.1339980656,-2.0099709839999997,4.6229332632,-1.3707586200000001,0.28343672000000003,-0.24800713000000005
15,5.5051,-0.1387837108,-2.0195422744,4.5990050371999995,-1.3194468000000001,0.26633278000000005,-0.24067687000000004
15,5.5051,-0.1339980656,-2.0243279196,4.6037906824,-1.2779086600000003,0.24800713000000005,-0.23212490000000005
15,5.5051,-0.11964113,-2.0195422744,4.6085763276,-1.2449224900000002,0.22723806000000005,-0.22479464000000005
15,5.5051,-0.0861416136,-1.9764714676,4.618147618,-1.2204882900000003,0.20891241000000002,-0.22112951000000003
15,5.5051,-0.0909272588,-1.9669001771999999,4.6277189084,-1.2058277700000002,0.19058676000000002,-0.21868609000000003
15,5.5051,-0.1292124204,-1.9764714676,4.6277189084,-1.1997192200000002,0.17226111000000002,-0.21624267000000003
16,5.7952,-0.12442677519999999,-1.9716858224,4.6325045536,-1.2009409300000002,0.15515717000000004,-0.21746438000000004
16,5.7952,-0.11964113,-1.962114532,4.6516471344,-1.2058277700000002,0.13560981000000003,-0.21868609000000003
16,5.7952,-0.1387837108,-1.9956140484,4.6468614892,-1.2119363200000002,0.11850587000000001,-0.22601635000000003
16,5.7952,-0.1531406464,-2.0195422744,4.6277189084,-1.2180448700000002,0.10262364000000002,-0.23212490000000005
16,5.7952,-0.1722832272,-2.0051853388,4.6229332632,-1.2229317100000001,0.08429799000000002,-0.23945516000000003
16,5.7952,-0.191425808,-2.0099709839999997,4.6037906824,-1.2278185500000003,0.06475063000000002,-0.24800713000000005
16,5.7952,-0.2009970984,-2.0291135648,4.5990050371999995,-1.2314836800000002,0.04398156000000001,-0.25411568000000007
16,5.7952,-0.20578274359999998,-2.0769700168,4.570291166,-1.23514881,0.021990780000000005,-0.26266765000000003
16,5.7952,-0.2584248408,-2.0769700168,4.5176490688,-1.2339271000000003,0.0024434200000000004,-0.27121962000000005
16,5.7952,-0.2440679052,-2.0769700168,4.5128634236,-1.2265968400000002,-0.020769070000000004,-0.27732817000000004
16,5.7952,-0.2344966148,-2.105683888,4.498506488,-1.2168231600000001,-0.04275985000000001,-0.28221501000000004
16,5.7952,-0.215354034,-2.1343977592,4.4697926167999995,-1.20338435,-0.06475063000000002,-0.28710185000000005
16,5.7952,-0.2201396792,-2.1391834043999998,4.4697926167999995,-1.1875021200000002,-0.08307628000000002,-0.29198869000000005
16,5.7952,-0.1866401628,-2.15354034,4.4602213264,-1.1728416000000002,-0.10140193000000002,-0.29687553000000005
16,5.7952,-0.2105683888,-2.1487546948,4.4602213264,-1.1594027900000001,-0.11606245000000003,-0.29931895000000003
16,5.7952,-0.2440679052,-2.1870398563999998,4.4697926167999995,-1.1484074000000002,-0.12950126000000003,-0.30176237000000006
16,5.7952,-0.215354034,-2.1583259852,4.4889351976,-1.1349685900000002,-0.14171836000000002,-0.30420579000000003
16,5.7952,-0.22971096959999998,-2.1966111468,4.5032921331999995,-1.12641662,-0.15027033000000004,-0.30787092000000005
16,5.7952,-0.2105683888,-2.1918255016,4.5176490688,-1.1166429400000002,-0.15882230000000003,-0.3103143400000001
16,5.7952,-0.1962114532,-2.2348963083999998,4.4937208428,-1.1080909700000001,-0.16615256000000003,-0.31153605000000006
17,6.0652,-0.1962114532,-2.27318147,4.5128634236,-1.10076071,-0.17103940000000004,-0.3103143400000001
17,6.0652,-0.1962114532,-2.2683958248,4.5128634236,-1.0922087400000002,-0.17714795000000003,-0.30787092000000005
17,6.0652,-0.2009970984,-2.2779671152,4.5128634236,-1.0848784800000002,-0.18325650000000002,-0.30787092000000005
17,6.0652,-0.215354034,-2.2875384056,4.5320060044,-1.0775482200000002,-0.18692163000000003,-0.30664921000000006
17,6.0652,-0.191425808,-2.3018953412,4.5272203592,-1.0751048,-0.19303018000000002,-0.30298408000000004
17,6.0652,-0.1866401628,-2.321037922,4.54636294,-1.0714396700000002,-0.19669531000000004,-0.29809724000000004
17,6.0652,-0.1962114532,-2.344966148,4.5272203592,-1.0714396700000002,-0.20280386000000003,-0.29321040000000004
17,6.0652,-0.1818545176,-2.3401805028,4.5032921331999995,-1.0714396700000002,-0.20891241000000002,-0.28954527
17,6.0652,-0.1722832272,-2.3353948576,4.498506488,-1.0714396700000002,-0.21502096000000004,-0.28588014000000006
17,6.0652,-0.1387837108,-2.3545374384,4.4697926167999995,-1.0738830900000003,-0.22235122000000004,-0.28099330000000006
17,6.0652,-0.1579262916,-2.3497517932,4.4602213264,-1.0787699300000002,-0.22845977000000003,-0.27732817000000004
17,6.0652,-0.143569356,-2.3593230836,4.4362931003999995,-1.0861001900000002,-0.23579003000000004,-0.27488475000000007
17,6.0652,-0.167497582,-2.3832513096,4.4458643908,-1.0934304500000003,-0.24189858000000003,-0.27121962000000005
17,6.0652,-0.1531406464,-2.416750826,4.4458643908,-1.0995390000000003,-0.25167226000000004,-0.2687762
17,6.0652,-0.1483550012,-2.4215364712,4.4410787456,-1.10686926,-0.25778081,-0.26755449000000003
17,6.0652,-0.1339980656,-2.4023938904,4.4171505196,-1.1166429400000002,-0.26388936,-0.26755449000000003
17,6.0652,-0.1531406464,-2.4550359876,4.3980079388,-1.1239732000000002,-0.26999791000000006,-0.26511107000000006
17,6.0652,-0.11964113,-2.4789642136,4.402793584,-1.1313034600000003,-0.27610646000000005,-0.26266765000000003
17,6.0652,-0.1052841944,-2.4837498588,4.4123648744,-1.1337468800000001,-0.28099330000000006,-0.26266765000000003
17,6.0652,-0.1052841944,-2.5028924396,4.4075792292,-1.1349685900000002,-0.28588014000000006,-0.26022423000000006
18,6.3741,-0.1100698396,-2.5220350204,4.3836510032,-1.1349685900000002,-0.28954527,-0.25655910000000004
18,6.3741,-0.1004985492,-2.5411776012,4.3980079388,-1.1337468800000001,-0.29198869000000005,-0.25411568000000007
18,6.3741,-0.095712904,-2.5746771176,4.4458643908,-1.1300817500000002,-0.29565382000000007,-0.25167226000000004
18,6.3741,-0.11964113,-2.6129622792,4.450650036,-1.1215297800000001,-0.29687553000000005,-0.24922884000000003
18,6.3741,-0.11964113,-2.5986053436,4.450650036,-1.1080909700000001,-0.29809724000000004,-0.24556371000000005
18,6.3741,-0.12442677519999999,-2.6608187312,4.4697926167999995,-1.0897653200000001,-0.30054066000000007,-0.23945516000000003
18,6.3741,-0.1339980656,-2.679961312,4.4889351976,-1.0714396700000002,-0.30054066000000007,-0.23334661000000004
18,6.3741,-0.11964113,-2.7086751832,4.4650069716,-1.04944889,-0.30176237000000006,-0.22601635000000003
18,6.3741,-0.1339980656,-2.7230321188,4.4650069716,-1.0225712700000003,-0.30054066000000007,-0.21868609000000003
18,6.3741,-0.143569356,-2.7373890544,4.4650069716,-0.9956936500000002,-0.29931895000000003,-0.21013412000000004
18,6.3741,-0.095712904,-2.7469603447999997,4.4889351976,-0.9663726100000002,-0.29809724000000004,-0.20280386000000003
18,6.3741,-0.095712904,-2.7565316352,4.4841495524,-0.9370515700000002,-0.29565382000000007,-0.19058676000000002
18,6.3741,-0.1100698396,-2.7948167967999997,4.522434714,-0.9077305300000001,-0.29321040000000004,-0.18203479000000003
18,6.3741,-0.11964113,-2.7661029256,4.4602213264,-0.8820746200000001,-0.29198869000000005,-0.17226111000000002
18,6.3741,-0.0909272588,-2.7708885708,4.4410787456,-0.8551970000000001,-0.28710185000000005,-0.16493085000000002
18,6.3741,-0.1292124204,-2.7421746996,4.450650036,-0.8307628000000001,-0.2846584300000001,-0.15637888000000003
18,6.3741,-0.0861416136,-2.75174599,4.4219361648,-0.8075503100000001,-0.28099330000000006,-0.14782691000000003
18,6.3741,-0.0861416136,-2.7421746996,4.3980079388,-0.7818944000000001,-0.27977159000000007,-0.14294007000000003
18,6.3741,-0.071784678,-2.7421746996,4.3740797127999995,-0.7574602000000001,-0.27977159000000007,-0.13805323000000003
18,6.3741,-0.08135596839999999,-2.727817764,4.3645084224,-0.7293608700000002,-0.27854988,-0.13560981000000003
19,6.8461,-0.057427742399999995,-2.75174599,4.3405801963999995,-0.7012615400000001,-0.27854988,-0.13316639000000002
19,6.8461,-0.0669990328,-2.7230321188,4.2975093896,-0.6756056300000001,-0.28221501000000004,-0.13072297000000002
19,6.8461,-0.0430708068,-2.7230321188,4.2640098732,-0.6511714300000001,-0.28710185000000005,-0.12950126000000003
19,6.8461,-0.071784678,-2.7086751832,4.2544385828,-0.6328457800000001,-0.29198869000000005,-0.12950126000000003
19,6.8461,-0.0191425808,-2.7086751832,4.2496529376,-0.6169635500000001,-0.29565382000000007,-0.13316639000000002
19,6.8461,-0.023928226,-2.703889538,4.1922251952,-0.6096332900000001,-0.30298408000000004,-0.13316639000000002
19,6.8461,-0.0334995164,-2.6895326024,4.1826539047999995,-0.6059681600000001,-0.30787092000000005,-0.13316639000000002
19,6.8461,-0.0191425808,-2.6751756668,4.18743955,-0.6071898700000001,-0.31397947000000004,-0.13316639000000002
19,6.8461,-0.0095712904,-2.7086751832,4.163511324,-0.6132984200000001,-0.32130973000000007,-0.13560981000000003
19,6.8461,0.0047856452,-2.6847469572,4.1443687432,-0.6218503900000001,-0.32863999000000005,-0.13560981000000003
19,6.8461,0.0095712904,-2.6703900216,4.1587256788,-0.6316240700000001,-0.33352683000000005,-0.13805323000000003
19,6.8461,0.0,-2.6991038927999997,4.1060835816,-0.6438411700000001,-0.34207880000000007,-0.14049665000000003
19,6.8461,-0.014356935599999999,-2.6895326024,4.1204405172,-0.6548365600000001,-0.35307419000000007,-0.14294007000000003
19,6.8461,0.0,-2.6943182476,4.1443687432,-0.6646102400000001,-0.3616261600000001,-0.14538349000000003
19,6.8461,0.0382851616,-2.7469603447999997,4.139583098,-0.6743839200000001,-0.3677347100000001,-0.14660520000000002
19,6.8461,0.0095712904,-2.7373890544,4.139583098,-0.6878227300000002,-0.37139984000000004,-0.15393546000000002
19,6.8461,0.014356935599999999,-2.7421746996,4.0965122912,-0.6975964100000002,-0.37628668000000004,-0.16004401000000001
19,6.8461,0.014356935599999999,-2.7708885708,4.1300118076,-0.7085918000000001,-0.37873010000000007,-0.16370914000000003
19,6.8461,0.047856452,-2.7852455064,4.1347974528,-0.7183654800000001,-0.3836169400000001,-0.16737427000000002
19,6.8461,0.047856452,-2.799602442,4.1443687432,-0.7244740300000001,-0.38483865000000006,-0.17348282000000004
20,7.0534,0.0334995164,-2.8187450228,4.1012979364,-0.7305825800000001,-0.38972549000000006,-0.17836966000000004
20,7.0534,0.0765703232,-2.8378876036,4.1204405172,-0.7318042900000001,-0.39094720000000005,-0.18447821000000003
20,7.0534,0.057427742399999995,-2.8378876036,4.1204405172,-0.7293608700000002,-0.39094720000000005,-0.18814334000000002
20,7.0534,0.0861416136,-2.8761727651999998,4.1252261624,-0.7232523200000002,-0.39216891000000004,-0.19180847000000004
20,7.0534,0.08135596839999999,-2.87138712,4.115654872,-0.7208089000000001,-0.39216891000000004,-0.19547360000000003
20,7.0534,0.0669990328,-2.8666014748,4.1204405172,-0.7171437700000001,-0.39094720000000005,-0.19913873000000004
20,7.0534,0.062213387599999996,-2.8809584104,4.1252261624,-0.7171437700000001,-0.38972549000000006,-0.19913873000000004
20,7.0534,0.08135596839999999,-2.9048866364,4.1012979364,-0.7110352200000001,-0.3885037800000001,-0.20402557000000004
20,7.0534,0.1004985492,-2.9336005076,4.1108692268,-0.7049266700000001,-0.3872820700000001,-0.20646899000000005
20,7.0534,0.0909272588,-2.9527430884,4.115654872,-0.6951529900000001,-0.38483865000000006,-0.20646899000000005
20,7.0534,0.0765703232,-2.9527430884,4.115654872,-0.6792707600000001,-0.3836169400000001,-0.20891241000000002
20,7.0534,0.1004985492,-2.9718856691999997,4.115654872,-0.6585016900000001,-0.3823952300000001,-0.20769070000000003
20,7.0534,0.0909272588,-2.99102825,4.1347974528,-0.6352892000000001,-0.3823952300000001,-0.20769070000000003
20,7.0534,0.08135596839999999,-3.0101708308,4.1539400336,-0.6108550000000001,-0.3823952300000001,-0.20646899000000005
20,7.0534,0.0909272588,-3.014956476,4.1347974528,-0.5864208000000001,-0.3836169400000001,-0.20402557000000004
20,7.0534,0.095712904,-3.0101708308,4.1252261624,-0.5656517300000001,-0.38483865000000006,-0.20158215000000004
20,7.0534,0.071784678,-3.0293134116,4.1539400336,-0.5461043700000001,-0.3872820700000001,-0.19669531000000004
20,7.0534,0.08135596839999999,-3.0245277664,4.1300118076,-0.5326655600000001,-0.3933906200000001,-0.19303018000000002
20,7.0534,0.0861416136,-3.0293134116,4.1252261624,-0.5241135900000001,-0.3982774600000001,-0.18936505000000003
20,7.0534,0.0765703232,-2.9862426048,4.139583098,-0.52167017,-0.40194259000000004,-0.18569992000000002
21,7.2694,0.1004985492,-2.9958138952,4.1300118076,-0.5192267500000001,-0.41049456000000006,-0.18081308000000004
21,7.2694,0.1052841944,-2.9862426048,4.1443687432,-0.5253353000000001,-0.41782482000000004,-0.17714795000000003
21,7.2694,0.11964113,-2.99102825,4.1587256788,-0.5302221400000001,-0.42759850000000005,-0.17470453000000002
21,7.2694,0.11964113,-2.9862426048,4.1539400336,-0.5375524,-0.43737218000000005,-0.17226111000000002
21,7.2694,0.1292124204,-3.0005995404,4.1204405172,-0.5412175300000001,-0.4495892800000001,-0.17103940000000004
21,7.2694,0.1387837108,-2.9958138952,4.1204405172,-0.5461043700000001,-0.46180638000000007,-0.17226111000000002
21,7.2694,0.1531406464,-3.0101708308,4.1491543883999995,-0.5461043700000001,-0.47402348000000005,-0.17348282000000004
21,7.2694,0.1339980656,-3.0101708308,4.139583098,-0.5399958200000001,-0.48868400000000006,-0.17592624000000004
21,7.2694,0.1483550012,-3.0532416376,4.139583098,-0.5290004300000001,-0.5045662300000001,-0.18081308000000004
21,7.2694,0.1387837108,-3.0915267992,4.1108692268,-0.5106747800000001,-0.52167017,-0.18325650000000002
21,7.2694,0.1722832272,-3.134597606,4.1012979364,-0.4850188700000001,-0.5375524,-0.18814334000000002
21,7.2694,0.143569356,-3.1298119608,4.0869410008,-0.44714586000000006,-0.5546563400000001,-0.19180847000000004
21,7.2694,0.1531406464,-3.1298119608,4.0821553556,-0.40194259000000004,-0.5754254100000001,-0.19791702000000003
21,7.2694,0.16271193679999998,-3.1489545415999998,4.0582271296,-0.35063077000000004,-0.5974161900000001,-0.20280386000000003
21,7.2694,0.143569356,-3.158525832,4.0486558392,-0.29687553000000005,-0.6181852600000001,-0.20646899000000005
21,7.2694,0.1818545176,-3.1776684128,4.0534414843999995,-0.24312029000000004,-0.6365109100000002,-0.20769070000000003
21,7.2694,0.1962114532,-3.1872397032,4.0534414843999995,-0.19547360000000003,-0.65605827,-0.21135583000000002
21,7.2694,0.1818545176,-3.1776684128,4.0965122912,-0.15760059,-0.6731622100000001,-0.21379925000000002
21,7.2694,0.1866401628,-3.1680971224,4.1204405172,-0.12950126000000003,-0.6866010200000001,-0.21379925000000002
21,7.2694,0.22971096959999998,-3.1680971224,4.0965122912,-0.11239732000000002,-0.7000398300000001,-0.21379925000000002
22,7.3992,0.2584248408,-3.134597606,4.0821553556,-0.10628877000000002,-0.7110352200000001,-0.21502096000000004
22,7.3992,0.287138712,-3.1872397032,4.0773697104,-0.10384535000000002,-0.7220306100000001,-0.21624267000000003
22,7.3992,0.2775674216,-3.1728827676,4.0534414843999995,-0.10140193000000002,-0.7318042900000001,-0.21502096000000004
22,7.3992,0.263210486,-3.1872397032,4.06779842,-0.10262364000000002,-0.7427996800000001,-0.21257754000000004
22,7.3992,0.3158525832,-3.2159535744,4.0582271296,-0.10018022000000001,-0.7525733600000001,-0.21257754000000004
22,7.3992,0.3158525832,-3.1680971224,4.0486558392,-0.10262364000000002,-0.7611253300000002,-0.21013412000000004
22,7.3992,0.334995164,-3.2159535744,4.0247276132,-0.10140193000000002,-0.7696773000000001,-0.20891241000000002
22,7.3992,0.3541377448,-3.2015966388,3.9912280968,-0.09895851000000001,-0.7770075600000002,-0.20769070000000003
22,7.3992,0.3541377448,-3.2159535744,3.9768711612,-0.09162825000000001,-0.7855595300000001,-0.20891241000000002
22,7.3992,0.35892339,-3.2207392196,3.972085516,-0.08063286000000001,-0.7941115000000001,-0.21257754000000004
22,7.3992,0.3780659708,-3.2255248648,3.9529429352,-0.06719405,-0.8038851800000001,-0.21257754000000004
22,7.3992,0.4211367776,-3.2159535744,3.972085516,-0.05619866000000001,-0.8124371500000002,-0.21135583000000002
22,7.3992,0.406779842,-3.2350961552,3.9481572899999997,-0.04153814000000001,-0.8209891200000001,-0.21379925000000002
22,7.3992,0.454636294,-3.2350961552,3.9864424516,-0.03298617,-0.8307628000000001,-0.21502096000000004
22,7.3992,0.4642075844,-3.254238736,4.0007993872,-0.021990780000000005,-0.8380930600000002,-0.21746438000000004
22,7.3992,0.4881358104,-3.2590243811999997,4.0199419679999995,-0.014660520000000003,-0.8454233200000001,-0.21624267000000003
22,7.3992,0.5120640364,-3.2446674455999998,4.0199419679999995,-0.012217100000000002,-0.8539752900000002,-0.21868609000000003
22,7.3992,0.5072783912,-3.2255248648,4.0199419679999995,-0.012217100000000002,-0.8637489700000002,-0.22235122000000004
22,7.3992,0.5168496816,-3.254238736,4.0247276132,-0.00855197,-0.8723009400000001,-0.22723806000000005
22,7.3992,0.5216353268,-3.2446674455999998,4.0295132584,-0.0012217100000000002,-0.8820746200000001,-0.23090319000000004
23,7.5893,0.5455635528,-3.2685956716,4.0534414843999995,0.007330260000000002,-0.8918483000000001,-0.23579003000000004
23,7.5893,0.526420972,-3.2829526072,4.0725840652,0.020769070000000004,-0.9028436900000002,-0.24067687000000004
23,7.5893,0.5120640364,-3.2590243811999997,4.1108692268,0.03420788,-0.9138390800000001,-0.24800713000000005
23,7.5893,0.526420972,-3.2207392196,4.0965122912,0.04398156000000001,-0.9236127600000001,-0.25167226000000004
23,7.5893,0.5407779076,-3.2255248648,4.1443687432,0.05253353000000001,-0.9346081500000002,-0.25289397
23,7.5893,0.5407779076,-3.2638100264,4.1826539047999995,0.06230721000000001,-0.9419384100000001,-0.25533739000000005
23,7.5893,0.5694917788,-3.2446674455999998,4.1730826144,0.07208089000000001,-0.9480469600000001,-0.25778081
23,7.5893,0.5407779076,-3.278166962,4.211367776,0.08674141000000002,-0.9529338000000002,-0.25900252000000007
23,7.5893,0.5551348432,-3.2829526072,4.2209390664,0.10506706000000002,-0.9590423500000002,-0.26022423000000006
23,7.5893,0.5599204884,-3.2973095428,4.1682969692,0.13194468,-0.9651509000000001,-0.26022423000000006
23,7.5893,0.5407779076,-3.2925238975999997,4.1539400336,0.16493085000000002,-0.9724811600000002,-0.26144594000000004
23,7.5893,0.574277424,-3.326023414,4.163511324,0.20280386000000003,-0.9761462900000002,-0.26144594000000004
23,7.5893,0.5934200048,-3.3068808332,4.1778682596,0.24556371000000005,-0.9810331300000001,-0.26144594000000004
23,7.5893,0.6077769404,-3.2925238975999997,4.1826539047999995,0.28588014000000006,-0.9834765500000001,-0.26022423000000006
23,7.5893,0.6173482308,-3.3403803495999997,4.2017964856,0.32497486000000003,-0.9846982600000002,-0.26144594000000004
23,7.5893,0.6412764568,-3.3355947044,4.211367776,0.35918274000000006,-0.9846982600000002,-0.25900252000000007
23,7.5893,0.6652046828,-3.3164521236,4.235296002,0.39461233000000007,-0.9822548400000002,-0.25411568000000007
23,7.5893,0.6843472636,-3.3212377688,4.2209390664,0.4300419200000001,-0.9798114200000002,-0.25167226000000004
23,7.5893,0.7082754896,-3.2973095428,4.2496529376,0.46791493000000006,-0.9785897100000002,-0.24800713000000005
23,7.5893,0.71784678,-3.3308090592,4.2735811636,0.5131182000000001,-0.9773680000000001,-0.24312029000000004
24,7.821,0.7034898444,-3.3690942208,4.2975093896,0.56320831,-0.9761462900000002,-0.23823345000000004
24,7.821,0.71784678,-3.3355947044,4.3166519704,0.6194069700000001,-0.9749245800000002,-0.22968148000000005
24,7.821,0.7322037156,-3.3547372852,4.3262232608,0.6804924700000001,-0.9785897100000002,-0.22112951000000003
24,7.821,0.7369893608,-3.3308090592,4.354937132,0.7476865200000001,-0.9810331300000001,-0.21379925000000002
24,7.821,0.71784678,-3.3595229304,4.3740797127999995,0.8173239900000001,-0.9883633900000002,-0.20646899000000005
24,7.821,0.7226324252,-3.326023414,4.4219361648,0.8832963300000002,-0.9956936500000002,-0.20036044000000003
24,7.821,0.7274180704,-3.2973095428,4.450650036,0.9431601200000002,-1.00546733,-0.19425189000000004
24,7.821,0.71784678,-3.2638100264,4.4410787456,0.9932502300000001,-1.01157588,-0.18814334000000002
24,7.821,0.7082754896,-3.2494530908,4.4793639072,1.0347883700000002,-1.0189061400000001,-0.18447821000000003
24,7.821,0.7274180704,-3.2207392196,4.4650069716,1.0628877,-1.0250146900000001,-0.18081308000000004
24,7.821,0.7800601676,-3.1872397032,4.4889351976,1.0824350600000001,-1.0274581100000002,-0.17592624000000004
24,7.821,0.7226324252,-3.1393832512,4.3884366484,1.0909870300000002,-1.0335666600000002,-0.16859598000000003
24,7.821,0.6843472636,-3.0484559924,4.4315074552,1.0934304500000003,-1.0360100800000003,-0.16248743000000002
24,7.821,0.7034898444,-2.9766713144,4.4650069716,1.0897653200000001,-1.02990153,-0.15760059
24,7.821,0.789631458,-2.9766713144,4.4362931003999995,1.0775482200000002,-1.0250146900000001,-0.16004401000000001
24,7.821,0.8422735552,-2.9814569596,4.42672181,1.06899625,-1.01768443,-0.16004401000000001
24,7.821,0.741775006,-3.0053851856,4.3740797127999995,1.0653311200000002,-1.0091324600000002,-0.15637888000000003
24,7.821,0.7561319416,-3.0197421211999997,4.3645084224,1.0751048,-1.00546733,-0.15149204000000002
24,7.821,0.789631458,-3.0532416376,4.3022950348,1.0958738700000001,-1.0066890400000001,-0.14294007000000003
24,7.821,0.7992027483999999,-3.0484559924,4.2496529376,1.1178646500000002,-1.0103541700000003,-0.13805323000000003
25,8.0508,0.7561319416,-3.062812928,4.2783668087999995,1.1410771400000002,-1.0140193000000002,-0.13805323000000003
25,8.0508,0.7752745223999999,-3.0771698636,4.2879380992,1.1655113400000001,-1.0164627200000003,-0.14416178000000002
25,8.0508,0.8231309743999999,-3.0819555088,4.2640098732,1.1960540900000003,-1.0140193000000002,-0.15027033000000004
25,8.0508,0.8901300072,-3.0771698636,4.235296002,1.2192665800000002,-1.0091324600000002,-0.15882230000000003
25,8.0508,0.8901300072,-3.0675985731999997,4.2305103568,1.2437007800000002,-1.00424562,-0.16859598000000003
25,8.0508,0.9044869428,-3.062812928,4.1826539047999995,1.2669132700000003,-0.9981370700000002,-0.17959137000000003
25,8.0508,0.95712904,-3.0293134116,4.1730826144,1.2876823400000001,-0.9908068100000001,-0.19425189000000004
25,8.0508,0.9619146852,-3.038884702,4.1922251952,1.3047862800000003,-0.9822548400000002,-0.21135583000000002
25,8.0508,1.028913718,-3.0197421211999997,4.1491543883999995,1.3170033800000003,-0.9712594500000001,-0.22968148000000005
25,8.0508,1.0336993632,-2.99102825,4.1491543883999995,1.3243336400000003,-0.9590423500000002,-0.24678542000000003
25,8.0508,1.0815558152,-2.9240292171999998,4.1730826144,1.3255553500000001,-0.9443818300000002,-0.26388936
25,8.0508,1.100698396,-2.9288148624,4.1826539047999995,1.3218902200000002,-0.9297213100000001,-0.27732817000000004
25,8.0508,1.148554848,-2.8857440556,4.1682969692,1.3157816700000002,-0.9150607900000002,-0.29198869000000005
25,8.0508,1.1533404932,-2.8522445392,4.1443687432,1.3072297000000002,-0.8991785600000002,-0.30664921000000006
25,8.0508,1.1629117836,-2.799602442,4.139583098,1.2962343100000002,-0.8869614600000001,-0.31886631000000004
25,8.0508,1.1533404932,-2.7948167967999997,4.1443687432,1.2901257600000002,-0.8771877800000002,-0.3310834100000001
25,8.0508,1.1676974288,-2.8043880872,4.1730826144,1.28646063,-0.8661923900000001,-0.33963538000000004
25,8.0508,1.148554848,-2.8091737324,4.1778682596,1.2815737900000002,-0.8564187100000001,-0.34818735000000006
25,8.0508,1.1294122672,-2.7852455064,4.1587256788,1.2827955000000002,-0.8490884500000001,-0.3518524800000001
25,8.0508,1.1054840412,-2.775674216,4.139583098,1.2827955000000002,-0.8393147700000001,-0.3616261600000001
26,8.0757,1.1102696864,-2.8187450228,4.1539400336,1.2815737900000002,-0.8380930600000002,-0.37017813000000005
26,8.0757,1.07677017,-2.775674216,4.1491543883999995,1.2779086600000003,-0.8344279300000002,-0.37873010000000007
26,8.0757,1.1198409768,-2.7804598611999998,4.1682969692,1.2742435300000001,-0.8332062200000001,-0.3885037800000001
26,8.0757,1.124626622,-2.799602442,4.2065821308,1.2669132700000003,-0.8295410900000001,-0.39705575000000004
26,8.0757,1.1294122672,-2.75174599,4.211367776,1.2595830100000003,-0.8234325400000001,-0.40560772000000006
26,8.0757,1.1437692028,-2.7421746996,4.211367776,1.2510310400000002,-0.8185457000000002,-0.4141596900000001
26,8.0757,1.1437692028,-2.7134608284,4.2257247116,1.2424790700000001,-0.8161022800000002,-0.42148995000000006
26,8.0757,1.1437692028,-2.7134608284,4.259224228,1.2424790700000001,-0.8112154400000001,-0.42637679000000006
26,8.0757,1.148554848,-2.7086751832,4.2927237444,1.2510310400000002,-0.8075503100000001,-0.4337070500000001
26,8.0757,1.1533404932,-2.7230321188,4.2879380992,1.2681349800000001,-0.8038851800000001,-0.4398156000000001
26,8.0757,1.1772687192,-2.7421746996,4.3453658416,1.2950126000000002,-0.8038851800000001,-0.44103731000000007
26,8.0757,1.1676974288,-2.7708885708,4.3262232608,1.3304421900000003,-0.8038851800000001,-0.4459241500000001
26,8.0757,1.1629117836,-2.7326034091999998,4.3884366484,1.3719803300000002,-0.8014417600000001,-0.4459241500000001
26,8.0757,1.1868400096,-2.7565316352,4.402793584,1.4171836000000002,-0.8051068900000001,-0.4459241500000001
26,8.0757,1.2107682356,-2.7230321188,4.4793639072,1.4587217400000003,-0.8038851800000001,-0.4459241500000001
26,8.0757,1.2346964616,-2.6847469572,4.522434714,1.4929296200000002,-0.8038851800000001,-0.44348073000000005
26,8.0757,1.3016954943999999,-2.6751756668,4.5511485852,1.5210289500000003,-0.8014417600000001,-0.4398156000000001
26,8.0757,1.3447663012,-2.63210486,4.5846481016,1.5417980200000003,-0.7989983400000001,-0.43615047000000007
26,8.0757,1.3686945272,-2.6416761504,4.6037906824,1.5552368300000003,-0.7892246600000001,-0.4300419200000001
26,8.0757,1.387837108,-2.6416761504,4.5894337468,1.5723407700000003,-0.7806726900000002,-0.4239333700000001
27,8.0892,1.4069796888,-2.656033086,4.594219392,1.5955532600000002,-0.7696773000000001,-0.42026824000000007
27,8.0892,1.3926227532,-2.6177479244,4.5846481016,1.6163223300000003,-0.7599036200000001,-0.41538140000000007
27,8.0892,1.3974083983999999,-2.608176634,4.5367916496,1.6334262700000002,-0.7476865200000001,-0.4129379800000001
27,8.0892,1.3782658176,-2.5507488916,4.5032921331999995,1.6407565300000002,-0.7330260000000001,-0.40682943000000005
27,8.0892,1.3782658176,-2.4981067944,4.4602213264,1.6395348200000002,-0.7183654800000001,-0.40072088000000006
27,8.0892,1.3591232368,-2.4454646972,4.4171505196,1.6297611400000003,-0.7000398300000001,-0.39216891000000004
27,8.0892,1.363908882,-2.4023938904,4.3884366484,1.6138789100000002,-0.6841576000000001,-0.3872820700000001
27,8.0892,1.3926227532,-2.3832513096,4.331008906,1.6053269400000003,-0.6670536600000001,-0.37995181000000006
27,8.0892,1.4069796888,-2.3258235672,4.3405801963999995,1.6041052300000003,-0.6499497200000001,-0.37506497000000005
27,8.0892,1.4500504956,-2.3353948576,4.3597227772,1.6126572000000003,-0.6352892000000001,-0.3726215500000001
27,8.0892,1.4548361408,-2.3497517932,4.3692940676,1.6309828500000003,-0.6206286800000002,-0.37139984000000004
27,8.0892,1.483550012,-2.3306092123999997,4.378865358,1.6590821800000002,-0.6059681600000001,-0.37017813000000005
27,8.0892,1.4979069476,-2.297109696,4.3836510032,1.6896249300000004,-0.5925293500000001,-0.37017813000000005
27,8.0892,1.4979069476,-2.3258235672,4.4123648744,1.7287196500000004,-0.5815339600000001,-0.37017813000000005
27,8.0892,1.4883356572,-2.3018953412,4.3932222936,1.7653709500000003,-0.5705385700000001,-0.36895642000000006
27,8.0892,1.5170495284,-2.3258235672,4.402793584,1.8032439600000003,-0.5619866000000001,-0.37017813000000005
27,8.0892,1.55533469,-2.27318147,4.4075792292,1.8362301300000003,-0.5558780500000001,-0.37139984000000004
27,8.0892,1.5744772707999999,-2.2348963083999998,4.4171505196,1.8667728800000003,-0.5485477900000001,-0.37017813000000005
27,8.0892,1.5888342064,-2.2205393728,4.378865358,1.8899853700000002,-0.5424392400000001,-0.37017813000000005
27,8.0892,1.6223337227999999,-2.1870398563999998,4.3740797127999995,1.9083110200000004,-0.5375524,-0.36895642000000006
28,8.1286,1.627119368,-2.177468566,4.3453658416,1.9217498300000002,-0.5338872700000001,-0.3677347100000001
28,8.1286,1.6175480776,-2.129612114,4.331008906,1.9303018000000003,-0.53144385,-0.36651300000000003
28,8.1286,1.6319050132,-2.105683888,4.3357945512,1.9364103500000003,-0.5265570100000001,-0.36651300000000003
28,8.1286,1.6414763036,-2.1152551784,4.3405801963999995,1.9400754800000004,-0.52167017,-0.36529129000000005
28,8.1286,1.67497582,-2.0865413072,4.3262232608,1.9425189000000003,-0.5167833300000001,-0.36529129000000005
28,8.1286,1.7371892076,-2.0721843716,4.2927237444,1.9449623200000004,-0.51556162,-0.37017813000000005
28,8.1286,1.7084753364,-2.0051853388,4.283152454,1.9510708700000003,-0.5094530700000001,-0.3726215500000001
28,8.1286,1.7611174336,-1.9669001771999999,4.2687955184,1.9547360000000003,-0.50212281,-0.37628668000000004
28,8.1286,1.8137595307999999,-1.938186306,4.259224228,1.9584011300000004,-0.4947925500000001,-0.3823952300000001
28,8.1286,1.8089738856,-1.938186306,4.2687955184,1.9632879700000003,-0.48868400000000006,-0.3885037800000001
28,8.1286,1.8233308212,-1.9046867896,4.2687955184,1.9632879700000003,-0.47891032000000006,-0.39583404000000005
28,8.1286,1.7994025952,-1.866401628,4.235296002,1.9535142900000004,-0.4703583500000001,-0.4031643000000001
28,8.1286,1.770688724,-1.8041882404,4.2305103568,1.9266366700000004,-0.4593629600000001,-0.41049456000000006
28,8.1286,1.7850456596,-1.7371892076,4.2305103568,1.8924287900000003,-0.44714586000000006,-0.41660311000000005
28,8.1286,1.7659030787999999,-1.651047594,4.2257247116,1.8447821000000002,-0.43248534000000005,-0.4239333700000001
28,8.1286,1.722832272,-1.5696916256,4.2161534212,1.7690360800000002,-0.41660311000000005,-0.42759850000000005
28,8.1286,1.7659030787999999,-1.531406464,4.2544385828,1.6896249300000004,-0.39949917000000007,-0.4337070500000001
28,8.1286,1.722832272,-1.4931213024,4.2687955184,1.6248743000000003,-0.38117352000000004,-0.44103731000000007
28,8.1286,1.7084753364,-1.4404792052,4.2448672923999995,1.5466848600000003,-0.3616261600000001,-0.4447024400000001
28,8.1286,1.7371892076,-1.5122638832,4.4075792292,1.4929296200000002,-0.34818735000000006,-0.4495892800000001
29,8.1601,1.722832272,-1.483550012,4.3645084224,1.4672737100000002,-0.33719196000000007,-0.45691954000000007
29,8.1601,1.6845471104,-1.4261222696,4.2879380992,1.3903059800000002,-0.32253144000000006,-0.45814125000000006
29,8.1601,1.6941184007999999,-1.5026925928,4.4123648744,1.3389941600000002,-0.3103143400000001,-0.4605846700000001
29,8.1601,1.698904046,-1.4452648504,4.4123648744,1.3206685100000002,-0.30420579000000003,-0.4666932200000001
29,8.1601,1.6414763036,-1.4021940436,4.3645084224,1.2852389200000003,-0.29565382000000007,-0.47280177000000007
29,8.1601,1.6462619487999999,-1.363908882,4.3453658416,1.2265968400000002,-0.2846584300000001,-0.47402348000000005
29,8.1601,1.698904046,-1.3830514628,4.4123648744,1.1740633100000002,-0.27244133000000004,-0.47402348000000005
29,8.1601,1.6845471104,-1.3782658176,4.450650036,1.1435205600000002,-0.25900252000000007,-0.4752451900000001
29,8.1601,1.6797614652,-1.3256237203999999,4.3597227772,1.1105343900000002,-0.24434200000000003,-0.4764669000000001
29,8.1601,1.6941184007999999,-1.3112667848,4.402793584,1.0653311200000002,-0.22845977000000003,-0.4764669000000001
29,8.1601,1.7132609816,-1.4021940436,4.5272203592,1.0482271800000003,-0.21379925000000002,-0.4825754500000001
29,8.1601,1.7371892076,-1.4021940436,4.5320060044,1.0482271800000003,-0.20280386000000003,-0.4874622900000001
29,8.1601,1.7324035624,-1.3974083983999999,4.5415772948,1.0347883700000002,-0.18936505000000003,-0.4911274200000001
29,8.1601,1.770688724,-1.4691930764,4.6133619728,1.03723179,-0.17714795000000003,-0.49845768000000007
29,8.1601,1.770688724,-1.4739787216,4.6325045536,1.04944889,-0.16615256000000003,-0.5094530700000001
29,8.1601,1.7850456596,-1.4644074312,4.6085763276,1.0677745400000003,-0.15760059,-0.5228918800000001
29,8.1601,1.8137595307999999,-1.4979069476,4.6133619728,1.0861001900000002,-0.15271375000000004,-0.5375524
29,8.1601,1.8568303376,-1.483550012,4.642075844,1.10076071,-0.14782691000000003,-0.5485477900000001
29,8.1601,1.8855442088,-1.5266208188,4.6564327796,1.1239732000000002,-0.14294007000000003,-0.5619866000000001
29,8.1601,1.9334006608,-1.5840485612,4.6995035864,1.1630679200000003,-0.14049665000000003,-0.57909054
30,8.1711,1.9477575964,-1.6606188844,4.7521456836,1.2204882900000003,-0.13805323000000003,-0.5974161900000001
30,8.1711,2.0003996936,-1.698904046,4.7569313287999995,1.2754652400000002,-0.13927494,-0.61452013
30,8.1711,1.9956140484,-1.6845471104,4.7569313287999995,1.3341073200000002,-0.13927494,-0.6352892000000001
30,8.1711,1.9669001771999999,-1.6462619487999999,4.7425743932,1.3793105900000002,-0.13805323000000003,-0.6511714300000001
30,8.1711,1.938186306,-1.603191142,4.6947179411999995,1.4098533400000002,-0.1343881,-0.6670536600000001
30,8.1711,1.91425808,-1.55533469,4.6468614892,1.4245138600000002,-0.13072297000000002,-0.6829358900000001
30,8.1711,1.91425808,-1.5409777544,4.5846481016,1.4269572800000003,-0.12339271000000002,-0.6927095700000001
30,8.1711,1.9094724348,-1.5122638832,4.5080777784,1.4269572800000003,-0.11361903000000002,-0.7024832500000001
30,8.1711,1.890329854,-1.4691930764,4.474578262,1.4220704400000002,-0.10873219000000002,-0.7085918000000001
30,8.1711,1.8951154991999999,-1.4404792052,4.4554356812,1.4135184700000003,-0.10018022000000001,-0.7122569300000001
30,8.1711,1.9046867896,-1.4069796888,4.4697926167999995,1.4049665000000002,-0.09162825000000001,-0.7147003500000001
30,8.1711,1.9238293704,-1.3926227532,4.4697926167999995,1.3915276900000002,-0.08063286000000001,-0.7183654800000001
30,8.1711,1.9238293704,-1.3304093656,4.4889351976,1.3744237500000003,-0.06719405,-0.7220306100000001
30,8.1711,1.9429719511999999,-1.292124204,4.5367916496,1.3536546800000002,-0.05009011000000001,-0.7244740300000001
30,8.1711,1.9286150156,-1.2490533972,4.5415772948,1.3304421900000003,-0.03176446000000001,-0.7232523200000002
30,8.1711,1.9190437251999999,-1.2299108163999999,4.594219392,1.3084514100000002,-0.012217100000000002,-0.7232523200000002
30,8.1711,1.890329854,-1.2011969452,4.6085763276,1.2876823400000001,0.006108550000000001,-0.7244740300000001
30,8.1711,1.8568303376,-1.1581261384,4.642075844,1.2693566900000002,0.023212490000000002,-0.7208089000000001
30,8.1711,1.866401628,-1.1389835576,4.642075844,1.2522527500000002,0.04275985000000001,-0.7195871900000002
30,8.1711,1.8520446924,-1.1198409768,4.6468614892,1.2327053900000002,0.06108550000000001,-0.7171437700000001
31,8.1799,1.79461695,-1.0384850084,4.618147618,1.2168231600000001,0.07574602000000001,-0.7134786400000002
31,8.1799,1.79461695,-1.0241280728,4.6372901988,1.2021626400000003,0.09040654000000002,-0.7073700900000001
31,8.1799,1.7563317884,-0.9714859755999999,4.618147618,1.1862804100000002,0.10384535000000002,-0.6988181200000001
31,8.1799,1.7180466267999999,-0.9188438783999999,4.6037906824,1.1655113400000001,0.11728416000000003,-0.6914878600000001
31,8.1799,1.6893327556,-0.8662017812,4.5846481016,1.13252517,0.13194468,-0.6804924700000001
31,8.1799,1.698904046,-0.813559684,4.5511485852,1.0909870300000002,0.14538349000000003,-0.6694970800000001
31,8.1799,1.698904046,-0.7704888772,4.474578262,1.03723179,0.16126572000000003,-0.6633885300000001
31,8.1799,1.6941184007999999,-0.7082754896,4.4458643908,0.9724811600000002,0.17714795000000003,-0.65605827
31,8.1799,1.6941184007999999,-0.6652046828,4.402793584,0.9028436900000002,0.19425189000000004,-0.6511714300000001
31,8.1799,1.6941184007999999,-0.6317051664,4.3501514868,0.8258759600000002,0.21257754000000004,-0.6487280100000001
31,8.1799,1.7036896912,-0.6269195211999999,4.3262232608,0.7489082300000002,0.23334661000000004,-0.6511714300000001
31,8.1799,1.6797614652,-0.6125625856,4.3022950348,0.6670536600000001,0.25289397,-0.6548365600000001
31,8.1799,1.6701901747999999,-0.5886343596,4.2640098732,0.5815339600000001,0.27732817000000004,-0.6597234000000001
31,8.1799,1.6797614652,-0.646062102,4.235296002,0.4972359700000001,0.30176237000000006,-0.6707187900000001
31,8.1799,1.7084753364,-0.6173482308,4.2017964856,0.4190465300000001,0.32986170000000004,-0.6817141800000001
31,8.1799,1.7419748527999999,-0.6556333924,4.1682969692,0.34574393000000003,0.35918274000000006,-0.6988181200000001
31,8.1799,1.7276179172,-0.7034898444,4.1491543883999995,0.27732817000000004,0.39094720000000005,-0.7171437700000001
31,8.1799,1.770688724,-0.7130611348,4.1252261624,0.21502096000000004,0.42148995000000006,-0.7391345500000002
31,8.1799,1.7994025952,-0.7274180704,4.1012979364,0.16004401000000001,0.45325441000000005,-0.7647904600000002
31,8.1799,1.8568303376,-0.7274180704,4.1204405172,0.11606245000000003,0.48868400000000006,-0.7928897900000001
32,8.1958,1.9046867896,-0.7513462964,4.1060835816,0.08185457000000002,0.5228918800000001,-0.8222108300000002
32,8.1958,1.9525432416,-0.7992027483999999,4.1060835816,0.05131182000000001,0.55709976,-0.8503101600000001
32,8.1958,1.962114532,-0.8231309743999999,4.1012979364,0.026877620000000005,0.5900859300000001,-0.8808529100000001
32,8.1958,2.0051853388,-0.83748791,4.1491543883999995,0.0024434200000000004,0.6242938100000001,-0.9113956600000002
32,8.1958,2.0243279196,-0.813559684,4.2448672923999995,-0.07208089000000001,0.7171437700000001,-0.9944719400000002
32,8.1958,1.459621786,-0.4929214556,4.4362931003999995,-0.10751048000000002,1.0030239100000002,-0.9077305300000001
32,8.1958,1.387837108,-0.215354034,4.2209390664,-0.7831161100000001,1.0531140200000002,-0.8454233200000001
32,8.1958,0.6652046828,-0.6795616184,4.4841495524,-1.2327053900000002,0.4703583500000001,-0.39949917000000007
32,8.1958,0.1770688724,-1.3543375916,4.6325045536,-2.2760457300000003,0.0024434200000000004,0.13927494
32,8.1958,0.3302095188,-2.4598216327999998,4.6085763276,-2.0158215000000004,-0.06108550000000001,0.22235122000000004
32,8.1958,1.1102696864,-2.8139593776,4.2496529376,0.06963747,-0.19303018000000002,0.6132984200000001
32,8.1958,0.6843472636,-2.5890340532,4.0582271296,0.07330260000000001,-0.17226111000000002,0.34207880000000007
32,8.1958,0.6747759731999999,-2.7613172804,4.2017964856,0.15149204000000002,-0.5742037000000001,0.006108550000000001
32,8.1958,0.7609175868,-2.75174599,4.54636294,0.41782482000000004,-0.9419384100000001,-0.10140193000000002
32,8.1958,0.71784678,-2.9001009912,4.7952164904,0.8136588600000001,-1.0726613800000002,-0.19058676000000002
32,8.1958,0.8470592003999999,-2.584248408,4.5415772948,1.2375922300000002,-0.9639291900000002,-0.26511107000000006
32,8.1958,1.3974083983999999,-2.4311077616,4.2448672923999995,0.5876425100000001,-0.6157418400000001,0.09407167000000001
32,8.1958,1.5984054967999999,-1.986042758,3.5748769644,1.08121335,-0.04520327000000001,-0.029321040000000007
32,8.1958,1.2586246876,-1.9812571128,3.924229064,0.5864208000000001,-0.17836966000000004,-0.007330260000000002
32,8.1958,1.6414763036,-2.1152551784,4.3597227772,1.1288600400000002,0.21868609000000003,0.21379925000000002
33,8.2033,0.9427721044,-1.6606188844,4.2209390664,1.0995390000000003,0.15882230000000003,-0.21379925000000002
33,8.2033,1.3830514628,-2.2061824372,5.1445685899999996,-1.0518923100000002,0.7098135100000001,0.07330260000000001
33,8.2033,0.574277424,-1.6366906584,4.8957150396,-1.0604442800000002,0.7110352200000001,-0.17348282000000004
33,8.2033,0.7034898444,-1.8329021116,4.9435714916,-0.37384326000000007,0.17470453000000002,-0.009773680000000002
33,8.2033,0.861416136,-1.938186306,4.3405801963999995,0.6255155200000001,-0.20402557000000004,0.22723806000000005
33,8.2033,0.981057266,-1.9334006608,4.331008906,0.34452222000000005,0.10262364000000002,0.47891032000000006
33,8.2033,1.0719845248,-2.0961125976,4.2257247116,-0.004886840000000001,0.45814125000000006,0.5668734400000001
33,8.2033,0.6652046828,-2.1248264688,4.2735811636,0.048868400000000006,0.5851990900000001,0.18081308000000004
33,8.2033,0.669990328,-2.1152551784,4.283152454,0.012217100000000002,0.5717602800000001,0.14294007000000003
33,8.2033,0.6604190376,-2.0482561456,4.3884366484,-0.07696773000000001,0.5253353000000001,0.09529338000000001
33,8.2033,0.646062102,-2.0673987264,4.3932222936,-0.12339271000000002,0.5009011000000001,0.07941115000000001
33,8.2033,0.6795616184,-2.0434705004,4.4410787456,-0.16737427000000002,0.47402348000000005,0.06230721000000001
33,8.2033,0.7369893608,-2.0626130812,4.5272203592,-0.31642289000000007,0.37139984000000004,0.04275985000000001
33,8.2033,0.933200814,-2.6129622792,4.6037906824,0.1343881,0.11239732000000002,0.23823345000000004
33,8.2033,0.9044869428,-2.2348963083999998,4.1970108404,0.5925293500000001,0.19058676000000002,0.5497695000000001
33,8.2033,0.8901300072,-2.2683958248,4.5176490688,0.09773680000000001,0.5668734400000001,0.6853793100000001
33,8.2033,0.3062812928,-1.6941184007999999,5.1254260092,-0.07085918000000001,0.11850587000000001,-0.13316639000000002
33,8.2033,0.1292124204,-2.1966111468,5.5274202059999995,0.12094929000000001,-0.37384326000000007,-0.09895851000000001
33,8.2033,0.526420972,-2.2588245344,5.2019963324,-0.20524728000000003,-0.47768861000000007,-0.15149204000000002
33,8.2033,0.8279166196,-2.2205393728,5.0057848792,0.17348282000000004,0.06719405,-0.28832356000000003
34,8.2116,-0.0191425808,-0.6173482308,4.4841495524,1.7812531800000002,-0.41171627000000005,-0.13927494
34,8.2116,0.20578274359999998,0.11964113,4.1060835816,1.4403960900000001,-0.55709976,0.27977159000000007
34,8.2116,0.41156548719999997,0.191425808,4.1347974528,0.22112951000000003,0.0,0.5167833300000001
34,8.2116,0.5216353268,-0.1531406464,4.5655055207999995,-0.8698575200000002,0.6010813200000001,0.6548365600000001
34,8.2116,0.22971096959999998,-1.2538390423999999,5.096712138,-0.9969153600000001,0.5913076400000001,0.7305825800000001
34,8.2116,0.43549371319999997,-1.8137595307999999,4.9100719752,-0.14660520000000002,0.010995390000000002,0.52167017
34,8.2116,0.4929214556,-1.4787643668,4.594219392,0.33841367000000006,-0.25167226000000004,0.3628478700000001
34,8.2116,0.2201396792,-2.1631116304,5.2833523008,0.22723806000000005,0.33719196000000007,0.21746438000000004
34,8.2116,0.7800601676,-1.698904046,4.6564327796,1.1997192200000002,-0.009773680000000002,0.30420579000000003
34,8.2116,0.1962114532,-0.8039883936,4.331008906,0.4251550800000001,-0.20769070000000003,0.27366304
34,8.2116,0.38763726119999997,-1.1772687192,4.8861437491999995,-0.5497695000000001,0.09529338000000001,-0.09284996000000001
34,8.2116,0.5407779076,-1.2777672683999999,4.642075844,0.35429590000000005,0.10262364000000002,-0.28710185000000005
34,8.2116,-0.057427742399999995,-1.1772687192,5.0392843956,-0.08063286000000001,-0.39949917000000007,-0.34452222000000005
34,8.2116,0.0334995164,-1.3495519463999999,5.2498527844,0.05986379000000001,-0.33352683000000005,-0.3726215500000001
34,8.2116,0.1770688724,-1.2777672683999999,5.0919264928,-0.024434200000000003,-0.31642289000000007,-0.38606036000000005
34,8.2116,0.3684946804,-1.339980656,5.0679982668,-0.26633278000000005,-0.29198869000000005,-0.38483865000000006
34,8.2116,0.3924229064,-1.3304093656,5.0775695571999995,-0.26266765000000003,-0.31275776000000005,-0.3775083900000001
34,8.2116,0.430708068,-1.4213366243999999,5.2498527844,-0.22601635000000003,-0.3836169400000001,-0.33963538000000004
34,8.2116,0.5024927459999999,-1.3351950108,5.192425042,-0.20402557000000004,-0.39583404000000005,-0.32497486000000003
34,8.2116,0.47377887479999997,-1.4452648504,5.168496816,0.07941115000000001,-0.45203270000000007,-0.24678542000000003
35,8.5941,0.4402793584,-1.3782658176,5.1110690735999995,0.12583613000000002,-0.45691954000000007,-0.23701174000000003
35,8.5941,0.4259224228,-1.3974083983999999,5.1445685899999996,0.16859598000000003,-0.45814125000000006,-0.23456832000000005
35,8.5941,0.4163511324,-1.411765334,5.1828537516,0.21868609000000003,-0.4605846700000001,-0.23090319000000004
35,8.5941,0.382851616,-1.4165509792,5.1349972996,0.2687762,-0.45814125000000006,-0.22968148000000005
35,8.5941,0.3924229064,-1.4213366243999999,5.1302116544,0.30787092000000005,-0.4544761200000001,-0.23456832000000005
35,8.5941,0.382851616,-1.459621786,5.096712138,0.33352683000000005,-0.44836757000000005,-0.23701174000000003
35,8.5941,0.3924229064,-1.483550012,5.0823552024,0.35551761000000004,-0.44225902000000006,-0.24434200000000003
35,8.5941,0.43549371319999997,-1.5218351736,5.0392843956,0.36651300000000003,-0.4349287600000001,-0.25533739000000005
35,8.5941,0.454636294,-1.531406464,5.000999234,0.37873010000000007,-0.42759850000000005,-0.26999791000000006
35,8.5941,0.4642075844,-1.5601203352,5.0201418148,0.39094720000000005,-0.4190465300000001,-0.28954527
35,8.5941,0.47377887479999997,-1.6462619487999999,5.0153561695999995,0.4080511400000001,-0.41049456000000006,-0.31153605000000006
35,8.5941,0.5168496816,-1.651047594,5.0105705244,0.42759850000000005,-0.4031643000000001,-0.33719196000000007
35,8.5941,0.5599204884,-1.6797614652,4.9962135888,0.4508109900000001,-0.39583404000000005,-0.36651300000000003
35,8.5941,0.59820565,-1.6701901747999999,4.9866422984,0.47891032000000006,-0.39094720000000005,-0.39461233000000007
35,8.5941,0.646062102,-1.6462619487999999,4.9627140724,0.5070096500000001,-0.38483865000000006,-0.4239333700000001
35,8.5941,0.7082754896,-1.6462619487999999,4.9387858464,0.5375524,-0.3823952300000001,-0.45203270000000007
35,8.5941,0.741775006,-1.579262916,4.8957150396,0.57298199,-0.37628668000000004,-0.4825754500000001
35,8.5941,0.8231309743999999,-1.5936198516,4.833501652,0.6084115800000001,-0.37506497000000005,-0.5082313600000001
35,8.5941,0.8757730716,-1.5984054967999999,4.7808595548,0.6413977500000001,-0.37628668000000004,-0.5338872700000001
35,8.5941,0.885344362,-1.579262916,4.7425743932,0.6743839200000001,-0.38117352000000004,-0.5583214700000001
36,8.8143,0.9523433948,-1.5266208188,4.689932296,0.7098135100000001,-0.38606036000000005,-0.5827556700000001
36,8.8143,0.933200814,-1.531406464,4.6612184247999995,0.7440213900000001,-0.39461233000000007,-0.60474645
36,8.8143,0.9284151688,-1.55533469,4.6277189084,0.7794509800000001,-0.41171627000000005,-0.6242938100000001
36,8.8143,0.9236295236,-1.5601203352,4.5607198756,0.8173239900000001,-0.4288202100000001,-0.6413977500000001
36,8.8143,0.8757730716,-1.5696916256,4.5511485852,0.8576404200000002,-0.44714586000000006,-0.65605827
36,8.8143,0.8757730716,-1.5888342064,4.5415772948,0.9004002700000001,-0.4654715100000001,-0.6731622100000001
36,8.8143,0.8470592003999999,-1.6175480776,4.5176490688,0.9541555100000002,-0.4874622900000001,-0.6890444400000001
36,8.8143,0.885344362,-1.5936198516,4.5415772948,1.0140193000000002,-0.5094530700000001,-0.7049266700000001
36,8.8143,0.8709874263999999,-1.5649059804,4.5511485852,1.0787699300000002,-0.52777872,-0.7208089000000001
36,8.8143,0.9236295236,-1.531406464,4.5415772948,1.1471856900000001,-0.5436609500000001,-0.7379128400000001
36,8.8143,0.9379864592,-1.4931213024,4.5559342304,1.2143797400000003,-0.5583214700000001,-0.7525733600000001
36,8.8143,0.9858429112,-1.4404792052,4.5655055207999995,1.28646063,-0.5705385700000001,-0.7708990100000002
36,8.8143,1.028913718,-1.4261222696,4.5511485852,1.3573198100000001,-0.5839773800000001,-0.7818944000000001
36,8.8143,1.0671988796,-1.3591232368,4.6037906824,1.4245138600000002,-0.5949727700000002,-0.7941115000000001
36,8.8143,1.100698396,-1.3208380752,4.5894337468,1.4904862000000003,-0.6071898700000001,-0.8026634700000002
36,8.8143,1.07677017,-1.2969098492,4.618147618,1.5589019600000003,-0.6194069700000001,-0.8087720200000001
36,8.8143,1.052841944,-1.2251251712,4.6564327796,1.6273177200000002,-0.6328457800000001,-0.8148805700000001
36,8.8143,1.0576275892,-1.1820543644,4.6612184247999995,1.6945117700000003,-0.6475063000000001,-0.8173239900000001
36,8.8143,1.0624132344,-1.1150553316,4.7090748768,1.7568189800000003,-0.6658319500000001,-0.8197674100000001
36,8.8143,0.7992027483999999,-0.765703232,4.833501652,2.0158215000000004,-0.8002200500000002,-0.8136588600000001
37,8.856,0.4833501652,-0.0909272588,5.1589255256,1.7702577900000003,-1.0018022000000002,-0.8564187100000001
37,8.856,0.5359922624,0.023928226,5.192425042,1.3670934900000002,-1.1117561000000002,-0.8967351400000001
37,8.856,0.622133876,0.0430708068,5.1589255256,1.1642896300000003,-1.1545159500000002,-0.9187259200000002
37,8.856,0.8709874263999999,-0.1579262916,4.8670011684,0.9663726100000002,-1.1801718600000002,-1.0018022000000002
37,8.856,1.1964113,-0.2823530668,4.5511485852,0.9822548400000002,-1.2009409300000002,-1.0225712700000003
37,8.856,1.7132609816,-0.2249253244,4.6325045536,1.1789501500000001,-1.2583613000000002,-0.9749245800000002
37,8.856,1.5984054967999999,0.0047856452,4.7808595548,1.1398554300000001,-1.2278185500000003,-1.0066890400000001
37,8.856,1.4021940436,0.095712904,4.8382872972,1.0384535000000001,-1.1948323800000002,-1.03723179
37,8.856,1.2155538808,0.3445664544,4.9722853628,0.9248344700000002,-1.0763265100000001,-1.0408969200000002
37,8.856,1.1389835576,0.3780659708,4.8382872972,0.6853793100000001,-0.9553772200000001,-0.9883633900000002
37,8.856,1.2346964616,0.3397808092,4.689932296,0.5961944800000001,-0.9101739500000001,-0.9211693400000002
37,8.856,1.5409777544,0.4211367776,4.522434714,0.6462845900000002,-0.8832963300000002,-0.7904463700000002
37,8.856,1.6414763036,0.454636294,4.6755753604,0.5033445200000001,-0.7684555900000001,-0.5009011000000001
37,8.856,1.9046867896,0.5312066172,4.5272203592,0.15760059,-1.2070494800000002,-0.39949917000000007
37,8.856,2.0530417908,0.35892339,4.3932222936,0.07452431000000001,-1.1960540900000003,-0.45814125000000006
37,8.856,2.2444675988,0.4259224228,4.211367776,0.18814334000000002,-1.0286798200000002,-0.5375524
37,8.856,2.3114666316,0.4833501652,4.2400816472,0.25045055000000005,-0.9089522400000002,-0.5803122500000001
37,8.856,2.249253244,0.4450650036,4.3932222936,0.34574393000000003,-0.7293608700000002,-0.6084115800000001
37,8.856,2.2301106632,0.4211367776,4.4650069716,0.37873010000000007,-0.6792707600000001,-0.6059681600000001
37,8.856,2.1104695332,0.6747759731999999,4.5415772948,0.47891032000000006,-0.4593629600000001,-0.5412175300000001
38,8.8731,2.0147566292,0.789631458,4.5750768112,0.4300419200000001,-0.34574393000000003,-0.4666932200000001
38,8.8731,2.0003996936,0.8662017812,4.5894337468,0.37139984000000004,-0.26755449000000003,-0.4129379800000001
38,8.8731,2.0147566292,0.9427721044,4.713860522,0.09407167000000001,-0.05253353000000001,-0.27244133000000004
38,8.8731,1.962114532,0.9427721044,4.6133619728,-0.09529338000000001,-0.04031643000000001,-0.18447821000000003
38,8.8731,1.9525432416,0.9188438783999999,4.5655055207999995,-0.20402557000000004,-0.08429799000000002,-0.14782691000000003
38,8.8731,1.9908284031999999,0.909272588,4.5511485852,-0.27732817000000004,-0.12950126000000003,-0.13560981000000003
38,8.8731,2.15354034,0.9044869428,4.450650036,-0.5204484600000001,-0.26144594000000004,-0.15027033000000004
38,8.8731,2.1583259852,0.9044869428,4.4123648744,-0.6817141800000001,-0.34085709000000003,-0.17959137000000003
38,8.8731,1.9956140484,0.789631458,4.4841495524,-1.1190863600000003,-0.5228918800000001,-0.25655910000000004
38,8.8731,1.9525432416,0.7130611348,4.54636294,-1.3011211500000002,-0.5937510600000001,-0.26755449000000003
38,8.8731,1.9716858224,0.7274180704,4.5655055207999995,-1.3402158700000002,-0.6071898700000001,-0.26633278000000005
38,8.8731,2.1631116304,0.693918554,4.570291166,-1.4794908100000002,-0.6023030300000001,-0.24922884000000003
38,8.8731,2.2779671152,0.622133876,4.5990050371999995,-1.5845578700000003,-0.5546563400000001,-0.24678542000000003
38,8.8731,2.3258235672,0.5024927459999999,4.618147618,-1.6554170500000003,-0.45691954000000007,-0.25289397
38,8.8731,2.3353948576,0.3780659708,4.6516471344,-1.6493085000000003,-0.3726215500000001,-0.24922884000000003
38,8.8731,2.297109696,0.34935209959999997,4.618147618,-1.5833361600000002,-0.2846584300000001,-0.22601635000000003
38,8.8731,2.3018953412,0.3206382284,4.5846481016,-1.3841974300000002,-0.07941115000000001,-0.16615256000000003
38,8.8731,2.2396819536,0.30149564759999997,4.5128634236,-1.2363705200000001,-0.004886840000000001,-0.10018022000000001
38,8.8731,2.249253244,0.2536391956,4.5032921331999995,-1.2168231600000001,-0.018325650000000002,-0.07452431000000001
38,8.8731,2.1726829208,0.12442677519999999,4.3740797127999995,-1.2058277700000002,-0.10018022000000001,-0.035429590000000004
39,8.8896,2.368894374,-0.9044869428,4.3740797127999995,-1.0335666600000002,0.15760059,0.06108550000000001
39,8.8896,2.297109696,-0.9188438783999999,4.3836510032,-1.0066890400000001,0.15882230000000003,0.05253353000000001
39,8.8896,2.3401805028,-0.909272588,4.3740797127999995,-0.9785897100000002,0.16004401000000001,0.04520327000000001
39,8.8896,2.3114666316,-0.909272588,4.3740797127999995,-0.9480469600000001,0.16370914000000003,0.037873010000000006
39,8.8896,2.2683958248,-0.8997012976,4.3645084224,-0.9150607900000002,0.16859598000000003,0.029321040000000007
39,8.8896,1.9525432416,-1.5026925928,4.1682969692,-0.3567393200000001,0.20524728000000003,0.04153814000000001
39,8.8896,1.91425808,-1.5026925928,4.18743955,-0.32497486000000003,0.20646899000000005,0.04275985000000001
39,8.8896,1.938186306,-1.5361921092,4.2400816472,-0.29443211,0.20891241000000002,0.046424980000000005
39,8.8896,1.91425808,-1.531406464,4.2400816472,-0.26144594000000004,0.21135583000000002,0.047646690000000005
39,8.8896,1.8999011444,-1.5361921092,4.2640098732,-0.23212490000000005,0.21502096000000004,0.046424980000000005
39,8.8896,1.91425808,-1.5505490447999999,4.2783668087999995,-0.20524728000000003,0.21624267000000003,0.04520327000000001
39,8.8896,1.7898313047999999,-1.1533404932,4.54636294,1.7433801700000002,0.07208089000000001,0.05619866000000001
39,8.8896,1.79461695,-1.1294122672,4.5894337468,1.7629275300000002,0.039094720000000006,0.06841576
39,8.8896,1.8089738856,-1.124626622,4.5511485852,1.7800314700000004,0.006108550000000001,0.07818944000000001
39,8.8896,1.746760498,-1.0959127508,4.5511485852,1.7971354100000003,-0.026877620000000005,0.08796312000000002
39,8.8896,1.7898313047999999,-1.0671988796,4.5990050371999995,1.8191261900000002,-0.05864208000000001,0.09284996000000001
39,8.8896,1.67497582,-0.43549371319999997,4.689932296,0.4495892800000001,0.39216891000000004,0.5143399100000001
39,8.8896,1.6845471104,-0.4259224228,4.6707897152,0.45325441000000005,0.40072088000000006,0.5228918800000001
39,8.8896,1.6558332392,-0.430708068,4.6995035864,0.45691954000000007,0.41171627000000005,0.5302221400000001
39,8.8896,1.6701901747999999,-0.454636294,4.6755753604,0.46180638000000007,0.42271166000000004,0.5387741100000001
40,8.9078,1.6606188844,-0.4450650036,4.689932296,0.46791493000000006,0.43615047000000007,0.5461043700000001
40,8.9078,1.6558332392,-0.4642075844,4.7042892316,0.4752451900000001,0.4508109900000001,0.5546563400000001
40,8.9078,1.3495519463999999,-0.3684946804,4.8191447164,0.4923491300000001,0.7085918000000001,0.6633885300000001
40,8.9078,1.3782658176,-0.3924229064,4.8382872972,0.49967939000000006,0.7061483800000001,0.6682753700000001
40,8.9078,1.4021940436,-0.38763726119999997,4.8478585876,0.5082313600000001,0.7012615400000001,0.6719405000000002
40,8.9078,1.363908882,-0.4163511324,4.8239303615999996,0.5204484600000001,0.6939312800000002,0.6743839200000001
40,8.9078,1.3304093656,-0.41156548719999997,4.8191447164,0.5338872700000001,0.6841576000000001,0.6780490500000002
40,8.9078,1.124626622,-0.5024927459999999,4.7330031028,0.6731622100000001,0.6242938100000001,0.6658319500000001
40,8.9078,0.8997012976,-0.3972085516,4.6612184247999995,0.6279589400000001,0.54732608,0.6646102400000001
40,8.9078,0.8757730716,-0.4211367776,4.66600407,0.58886422,0.5424392400000001,0.6707187900000001
40,8.9078,1.3064811396,-0.2727817764,4.498506488,-0.05864208000000001,0.4398156000000001,0.8051068900000001
40,8.9078,1.3543375916,-0.2919243572,4.5655055207999995,-0.23701174000000003,0.38483865000000006,0.7501299400000001
40,8.9078,1.3304093656,-0.526420972,5.0584269764,-0.17348282000000004,0.43615047000000007,0.5839773800000001
40,8.9078,1.3064811396,-0.5168496816,5.0632126216,-0.03298617,0.4508109900000001,0.5900859300000001
40,8.9078,1.2825529136,-0.4833501652,5.0823552024,0.010995390000000002,0.45203270000000007,0.5986379000000001
40,8.9078,1.2729816232,-0.4689932296,5.1014977832,0.05009011000000001,0.4556978300000001,0.6084115800000001
40,8.9078,1.3016954943999999,-0.4259224228,5.0919264928,0.08674141000000002,0.4593629600000001,0.6181852600000001
40,8.9078,1.2729816232,-0.3972085516,5.0823552024,0.12094929000000001,0.46180638000000007,0.6316240700000001
40,8.9078,1.411765334,-0.3158525832,5.4460642376,0.5900859300000001,0.37628668000000004,0.7220306100000001
40,8.9078,1.3304093656,-0.263210486,5.4508498828,0.6389543300000001,0.3310834100000001,0.7147003500000001
41,8.9187,1.0671988796,0.0334995164,4.8430729424,-0.17470453000000002,0.013438810000000002,0.33230512000000006
41,8.9187,1.1341979124,0.0095712904,4.8000021356,-0.24067687000000004,0.012217100000000002,0.29076698000000006
41,8.9187,1.1341979124,-0.0095712904,4.8047877808,-0.30909263000000003,0.00855197,0.24189858000000003
41,8.9187,1.1581261384,-0.0526420972,4.8047877808,-0.3775083900000001,0.0012217100000000002,0.19425189000000004
41,8.9187,1.0815558152,-0.4689932296,4.977071008,-0.36040445000000004,-0.10628877000000002,-0.08063286000000001
41,8.9187,1.0576275892,-0.49770710079999997,5.0105705244,-0.30054066000000007,-0.07330260000000001,-0.09162825000000001
41,8.9187,1.0624132344,-0.4929214556,5.0632126216,-0.22112951000000003,-0.019547360000000003,-0.10262364000000002
41,8.9187,1.0432706536,-0.3972085516,5.000999234,0.06719405,0.06352892000000002,-0.08674141000000002
41,8.9187,1.0336993632,-0.406779842,4.90528633,0.15271375000000004,0.04275985000000001,-0.09773680000000001
41,8.9187,1.0432706536,-0.3302095188,4.7569313287999995,0.23212490000000005,-0.020769070000000004,-0.14538349000000003
41,8.9187,0.8949156523999999,-0.430708068,4.8143590712,0.21624267000000003,-0.1343881,-0.15882230000000003
41,8.9187,0.8566304908,-0.35892339,4.9340002012,0.14294007000000003,-0.15760059,-0.16126572000000003
41,8.9187,1.0145567824,-0.382851616,4.809573426,0.11850587000000001,-0.1343881,-0.12583613000000002
41,8.9187,0.9906285564,-0.4019941968,4.8143590712,0.13072297000000002,-0.12339271000000002,-0.09040654000000002
41,8.9187,1.0576275892,-0.334995164,4.9387858464,0.19180847000000004,-0.05619866000000001,-0.037873010000000006
41,8.9187,1.1341979124,-0.2967100024,4.7952164904,0.23456832000000005,-0.04031643000000001,-0.04520327000000001
41,8.9187,1.1772687192,-0.2919243572,4.8861437491999995,0.19425189000000004,-0.046424980000000005,-0.05497695000000001
41,8.9187,0.9475577495999999,-0.215354034,5.1110690735999995,-0.06230721000000001,0.0,-0.04520327000000001
41,8.9187,0.8709874263999999,-0.215354034,5.096712138,-0.14416178000000002,0.03176446000000001,-0.024434200000000003
41,8.9187,0.9236295236,-0.22971096959999998,5.0153561695999995,-0.13927494,0.05009011000000001,-0.0024434200000000004
42,8.9287,0.9619146852,-0.2584248408,4.8430729424,-0.024434200000000003,0.047646690000000005,0.025655910000000004
42,8.9287,1.0719845248,-0.2823530668,4.7904308451999995,-0.014660520000000003,-0.004886840000000001,0.023212490000000002
42,8.9287,0.9619146852,-0.3158525832,4.9387858464,-0.11606245000000003,-0.05986379000000001,0.0
42,8.9287,1.0001998468,-0.334995164,4.8622155232,-0.026877620000000005,-0.05986379000000001,-0.046424980000000005
42,8.9287,1.0336993632,-0.3302095188,4.7856452,0.08674141000000002,-0.06230721000000001,-0.039094720000000006
42,8.9287,1.0432706536,-0.2967100024,4.689932296,0.19547360000000003,-0.08551970000000002,-0.013438810000000002
42,8.9287,1.1102696864,-0.32542387359999997,4.7234318124,0.26511107000000006,-0.1343881,0.010995390000000002
42,8.9287,1.052841944,-0.287138712,5.0440700408,0.14538349000000003,-0.18692163000000003,0.003665130000000001
42,8.9287,1.148554848,-0.3445664544,5.1397829448,0.13316639000000002,-0.16248743000000002,-0.035429590000000004
42,8.9287,1.2251251712,-0.287138712,4.7425743932,0.30787092000000005,-0.04153814000000001,-0.06475063000000002
42,8.9287,1.2059825903999999,-0.2727817764,4.66600407,0.36040445000000004,-0.026877620000000005,-0.07208089000000001
42,8.9287,1.1341979124,-0.2009970984,4.6851466508,0.41782482000000004,-0.036651300000000005,-0.06475063000000002
42,8.9287,1.0432706536,-0.1770688724,4.977071008,0.19547360000000003,-0.08063286000000001,-0.05742037000000001
42,8.9287,0.9858429112,-0.20578274359999998,5.1110690735999995,0.05986379000000001,-0.08918483000000002,-0.06230721000000001
42,8.9287,1.1294122672,-0.2536391956,5.0392843956,-0.13805323000000003,-0.05375524000000001,-0.10628877000000002
42,8.9287,1.1820543644,-0.2249253244,4.9627140724,-0.11361903000000002,-0.026877620000000005,-0.10751048000000002
42,8.9287,1.1916256548,-0.2249253244,4.90528633,-0.07085918000000001,-0.012217100000000002,-0.09284996000000001
42,8.9287,1.148554848,-0.2009970984,4.90528633,-0.004886840000000001,-0.03298617,-0.028099330000000006
42,8.9287,1.0911271056,-0.1818545176,4.9674997176,-0.026877620000000005,-0.05619866000000001,0.007330260000000002
42,8.9287,1.0193424276,-0.23928226,5.0153561695999995,-0.07818944000000001,-0.07941115000000001,0.05497695000000001
43,8.9345,1.0815558152,-0.2249253244,4.9244289108,-0.08918483000000002,-0.06475063000000002,0.06841576
43,8.9345,1.148554848,-0.2536391956,4.833501652,-0.08674141000000002,-0.03298617,0.06230721000000001
43,8.9345,1.1916256548,-0.2344966148,4.6803610056,-0.05131182000000001,0.04398156000000001,0.047646690000000005
43,8.9345,1.1820543644,-0.215354034,4.6325045536,0.04520327000000001,0.11239732000000002,0.05253353000000001
43,8.9345,1.052841944,-0.2344966148,4.8622155232,-0.04031643000000001,0.12339271000000002,0.06230721000000001
43,8.9345,1.148554848,-0.2584248408,4.9435714916,-0.020769070000000004,0.08063286000000001,0.020769070000000004
43,8.9345,1.1437692028,-0.2967100024,4.9100719752,-0.0012217100000000002,0.06230721000000001,0.0012217100000000002
43,8.9345,1.148554848,-0.3062812928,4.809573426,0.09162825000000001,-0.006108550000000001,-0.047646690000000005
43,8.9345,1.1676974288,-0.287138712,4.8239303615999996,0.16126572000000003,-0.05864208000000001,-0.06719405
43,8.9345,0.885344362,-0.2201396792,4.857429878,0.34085709000000003,-0.17226111000000002,-0.10018022000000001
43,8.9345,0.9188438783999999,-0.1004985492,4.8430729424,0.35551761000000004,-0.17470453000000002,-0.09040654000000002
43,8.9345,1.2394821068,-0.1100698396,4.9674997176,0.16615256000000003,-0.20158215000000004,0.018325650000000002
43,8.9345,1.2490533972,-0.1292124204,5.0057848792,0.15027033000000004,-0.20646899000000005,0.025655910000000004
43,8.9345,1.3686945272,-0.08135596839999999,5.0823552024,0.10262364000000002,-0.19913873000000004,0.030542750000000004
43,8.9345,1.3974083983999999,-0.1052841944,5.0632126216,0.10873219000000002,-0.17103940000000004,0.0
43,8.9345,1.2873385588,-0.191425808,4.9387858464,0.13194468,-0.14294007000000003,-0.05009011000000001
43,8.9345,1.3016954943999999,-0.2009970984,4.8909293944,0.15882230000000003,-0.13683152,-0.07208089000000001
43,8.9345,1.172483074,-0.1962114532,4.833501652,0.25778081,-0.12094929000000001,-0.12217100000000002
43,8.9345,1.0576275892,-0.143569356,4.8287160068,0.31764460000000005,-0.13316639000000002,-0.12461442000000002
43,8.9345,1.1150553316,-0.0669990328,4.8000021356,0.36040445000000004,-0.17226111000000002,-0.07818944000000001
44,8.9428,1.172483074,-0.014356935599999999,4.8143590712,0.35063077000000004,-0.20524728000000003,-0.028099330000000006
44,8.9428,1.2251251712,-0.057427742399999995,4.7808595548,0.33352683000000005,-0.21868609000000003,0.00855197
44,8.9428,1.3351950108,-0.0765703232,4.8861437491999995,0.26999791000000006,-0.22112951000000003,0.037873010000000006
44,8.9428,1.43569356,-0.0191425808,4.8957150396,0.23212490000000005,-0.20280386000000003,0.036651300000000005
44,8.9428,1.4452648504,-0.0334995164,4.9483571368,0.12583613000000002,-0.1343881,0.003665130000000001
44,8.9428,1.4261222696,-0.1483550012,4.8526442327999995,-0.05986379000000001,-0.010995390000000002,-0.046424980000000005
44,8.9428,1.4165509792,-0.11964113,4.8382872972,-0.13194468,0.04520327000000001,-0.06841576
44,8.9428,1.387837108,-0.1292124204,4.8765724588,-0.17470453000000002,0.07574602000000001,-0.07941115000000001
44,8.9428,1.3016954943999999,-0.057427742399999995,5.0536413312,-0.5375524,0.035429590000000004,-0.05619866000000001
44,8.9428,1.2586246876,-0.071784678,5.0584269764,-0.7208089000000001,0.019547360000000003,-0.046424980000000005
44,8.9428,1.2394821068,-0.1004985492,5.0775695571999995,-0.8942917200000001,0.028099330000000006,-0.037873010000000006
44,8.9428,1.2634103328,-0.143569356,5.1445685899999996,-1.1606245000000002,0.09651509000000001,-0.036651300000000005
44,8.9428,1.2251251712,-0.2105683888,5.096712138,-1.2302619700000001,0.16859598000000003,-0.014660520000000003
44,8.9428,1.0576275892,-0.2584248408,4.8047877808,-0.8368713500000001,0.13316639000000002,0.06352892000000002
44,8.9428,0.9906285564,-0.2919243572,4.7090748768,-0.6707187900000001,0.07696773000000001,0.04398156000000001
44,8.9428,0.9619146852,-0.2823530668,4.8000021356,-0.50212281,-0.06108550000000001,-0.013438810000000002
44,8.9428,1.1389835576,-0.3972085516,4.8717868136,-0.6511714300000001,-0.15027033000000004,-0.11972758000000001
44,8.9428,1.4021940436,-0.574277424,4.6037906824,-0.4752451900000001,-0.08674141000000002,-0.17470453000000002
44,8.9428,1.4069796888,-0.7322037156,4.5559342304,-0.09407167000000001,-0.17714795000000003,-0.2687762
44,8.9428,1.4548361408,-0.7944171032,4.4075792292,0.4495892800000001,-0.5485477900000001,-0.5815339600000001
45,8.945,1.292124204,-0.6652046828,4.90528633,0.6817141800000001,-0.9297213100000001,-0.8222108300000002
45,8.945,1.2777672683999999,-0.5886343596,5.1589255256,0.04520327000000001,-0.9859199700000002,-0.8258759600000002
45,8.945,1.6797614652,-0.5694917788,4.90528633,-0.27854988,0.14049665000000003,-0.33230512000000006
45,8.945,1.6414763036,-0.6317051664,4.8957150396,-0.3982774600000001,0.14049665000000003,-0.29198869000000005
45,8.945,1.5888342064,-0.6604190376,4.809573426,-0.32741828000000006,0.05253353000000001,-0.24434200000000003
45,8.945,1.5122638832,-0.622133876,4.6564327796,-0.06841576,-0.12339271000000002,-0.16370914000000003
45,8.945,1.5409777544,-0.5551348432,4.5894337468,0.048868400000000006,-0.21379925000000002,-0.10262364000000002
45,8.945,1.7371892076,-0.6029912951999999,4.6325045536,0.015882230000000004,-0.17103940000000004,-0.05864208000000001
45,8.945,1.8855442088,-0.5694917788,4.4697926167999995,0.47402348000000005,-0.06230721000000001,-0.16126572000000003
45,8.945,1.9094724348,-0.574277424,4.570291166,0.6462845900000002,-0.15637888000000003,-0.29565382000000007
45,8.945,1.7994025952,-0.6077769404,4.6612184247999995,0.6963747000000001,-0.22968148000000005,-0.4544761200000001
45,8.945,1.7802600144,-0.4498506488,4.7473600384,0.6963747000000001,-0.25045055000000005,-0.5387741100000001
45,8.945,1.7850456596,-0.41156548719999997,4.737788748,0.6279589400000001,-0.26755449000000003,-0.5974161900000001
45,8.945,1.7324035624,-0.3062812928,4.8287160068,0.4874622900000001,-0.27977159000000007,-0.6108550000000001
45,8.945,1.7754743692,-0.11964113,4.8047877808,0.012217100000000002,0.07085918000000001,-0.35551761000000004
45,8.945,1.7850456596,-0.0861416136,4.8430729424,0.012217100000000002,0.09773680000000001,-0.33841367000000006
45,8.945,1.818545176,-0.11485548479999999,4.8622155232,0.04520327000000001,0.16859598000000003,-0.29443211
45,8.945,1.7850456596,-0.071784678,4.8382872972,0.10262364000000002,0.22357293000000003,-0.25045055000000005
45,8.945,1.7276179172,-0.12442677519999999,4.8000021356,0.11117561000000002,0.21746438000000004,-0.23334661000000004
45,8.945,1.5696916256,-0.167497582,4.7234318124,0.10384535000000002,0.1343881,-0.23823345000000004
46,8.9598,1.5505490447999999,-0.167497582,4.7952164904,0.09040654000000002,0.04398156000000001,-0.25045055000000005
46,8.9598,1.6366906584,-0.1722832272,4.7712882644,0.021990780000000005,-0.07941115000000001,-0.24922884000000003
46,8.9598,1.7419748527999999,-0.167497582,4.7330031028,-0.030542750000000004,-0.14538349000000003,-0.21746438000000004
46,8.9598,1.8041882404,-0.191425808,4.6564327796,-0.03298617,-0.16493085000000002,-0.17592624000000004
46,8.9598,1.79461695,-0.167497582,4.570291166,-0.006108550000000001,-0.15393546000000002,-0.13316639000000002
46,8.9598,1.8616159828,-0.1579262916,4.5415772948,0.10995390000000002,-0.07818944000000001,-0.08429799000000002
46,8.9598,1.8711872732,-0.1339980656,4.5272203592,0.12950126000000003,-0.06352892000000002,-0.08063286000000001
46,8.9598,1.866401628,-0.12442677519999999,4.594219392,0.19791702000000003,-0.0012217100000000002,-0.08918483000000002
46,8.9598,1.8376877567999998,-0.11964113,4.6325045536,0.22845977000000003,0.030542750000000004,-0.10262364000000002
46,8.9598,1.7563317884,-0.1292124204,4.689932296,0.26755449000000003,0.036651300000000005,-0.12583613000000002
46,8.9598,1.7563317884,-0.08135596839999999,4.7042892316,0.27732817000000004,0.03176446000000001,-0.13560981000000003
46,8.9598,1.7084753364,0.0191425808,4.8000021356,0.2687762,-0.007330260000000002,-0.15515717000000004
46,8.9598,1.651047594,-0.0095712904,4.7186461672,0.25289397,-0.05986379000000001,-0.11728416000000003
46,8.9598,1.6127624324,0.0047856452,4.7425743932,0.25411568000000007,-0.06597234,-0.11117561000000002
46,8.9598,1.6366906584,-0.0191425808,4.689932296,0.25289397,-0.07696773000000001,-0.08429799000000002
46,8.9598,1.6366906584,0.0095712904,4.7090748768,0.25289397,-0.07941115000000001,-0.07574602000000001
46,8.9598,1.7324035624,-0.057427742399999995,4.7521456836,0.22845977000000003,-0.06841576,-0.03176446000000001
46,8.9598,1.8137595307999999,-0.047856452,4.7186461672,0.24312029000000004,-0.048868400000000006,-0.009773680000000002
46,8.9598,1.8472590472,-0.0382851616,4.6229332632,0.29931895000000003,-0.05864208000000001,0.00855197
46,8.9598,1.8281164664,-0.0334995164,4.54636294,0.34207880000000007,-0.09529338000000001,-0.0024434200000000004
47,8.9869,1.8281164664,-0.047856452,4.5511485852,0.35429590000000005,-0.10751048000000002,-0.006108550000000001
47,8.9869,1.9477575964,0.08135596839999999,4.7234318124,0.39705575000000004,-0.18081308000000004,-0.03176446000000001
47,8.9869,1.938186306,0.071784678,4.7186461672,0.39583404000000005,-0.17836966000000004,-0.03176446000000001
47,8.9869,1.9286150156,0.11964113,4.7042892316,0.38483865000000006,-0.13194468,-0.03298617
47,8.9869,1.9190437251999999,0.1579262916,4.6755753604,0.37139984000000004,-0.09040654000000002,-0.035429590000000004
47,8.9869,1.8807585636,0.167497582,4.6516471344,0.3628478700000001,-0.018325650000000002,-0.05619866000000001
47,8.9869,1.8855442088,0.167497582,4.6755753604,0.36529129000000005,-0.004886840000000001,-0.06108550000000001
47,8.9869,1.818545176,0.1483550012,4.642075844,0.3885037800000001,0.05253353000000001,-0.08429799000000002
47,8.9869,1.7898313047999999,0.1722832272,4.6707897152,0.39583404000000005,0.05742037000000001,-0.08674141000000002
47,8.9869,1.770688724,0.1962114532,4.7521456836,0.40072088000000006,0.046424980000000005,-0.08796312000000002
47,8.9869,1.7802600144,0.2105683888,4.761716974,0.38972549000000006,0.029321040000000007,-0.08551970000000002
47,8.9869,1.7515461432,0.2344966148,4.7665026192,0.35429590000000005,-0.030542750000000004,-0.07330260000000001
47,8.9869,1.8089738856,0.2584248408,4.7760739096,0.28954527,-0.12094929000000001,-0.05742037000000001
47,8.9869,1.8520446924,0.2823530668,4.7425743932,0.23823345000000004,-0.14660520000000002,-0.05375524000000001
47,8.9869,1.9094724348,0.2679961312,4.7425743932,0.10384535000000002,-0.15149204000000002,-0.035429590000000004
47,8.9869,1.9477575964,0.263210486,4.7330031028,0.09040654000000002,-0.14416178000000002,-0.03176446000000001
47,8.9869,1.938186306,0.263210486,4.7042892316,0.05253353000000001,-0.09040654000000002,-0.023212490000000002
47,8.9869,1.9190437251999999,0.24885355039999998,4.7282174576,0.05253353000000001,-0.08429799000000002,-0.023212490000000002
47,8.9869,1.938186306,0.23928226,4.761716974,0.048868400000000006,-0.07452431000000001,-0.021990780000000005
47,8.9869,1.9286150156,0.2584248408,4.7090748768,0.048868400000000006,-0.06719405,-0.024434200000000003
48,9.0006,1.91425808,0.2775674216,4.7234318124,0.04153814000000001,-0.04275985000000001,-0.036651300000000005
48,9.0006,1.9190437251999999,0.2967100024,4.7282174576,0.039094720000000006,-0.037873010000000006,-0.037873010000000006
48,9.0006,1.842473402,0.3732803256,4.7186461672,0.019547360000000003,-0.025655910000000004,-0.04275985000000001
48,9.0006,1.8616159828,0.3445664544,4.7234318124,0.00855197,-0.024434200000000003,-0.04031643000000001
48,9.0006,1.8376877567999998,0.3445664544,4.7330031028,0.0012217100000000002,-0.024434200000000003,-0.036651300000000005
48,9.0006,1.8089738856,0.3541377448,4.7042892316,-0.019547360000000003,-0.021990780000000005,-0.028099330000000006
48,9.0006,1.842473402,0.3541377448,4.6995035864,-0.024434200000000003,-0.024434200000000003,-0.024434200000000003
48,9.0006,1.8520446924,0.3206382284,4.7186461672,-0.024434200000000003,-0.024434200000000003,-0.020769070000000004
48,9.0006,1.842473402,0.287138712,4.713860522,0.0024434200000000004,-0.03298617,-0.010995390000000002
48,9.0006,1.842473402,0.2919243572,4.7090748768,0.018325650000000002,-0.036651300000000005,-0.010995390000000002
48,9.0006,1.8999011444,0.3158525832,4.8143590712,0.16981769000000002,-0.08674141000000002,-0.01710394
48,9.0006,1.8089738856,0.35892339,4.7712882644,0.19669531000000004,-0.18692163000000003,-0.01710394
48,9.0006,1.8041882404,0.34935209959999997,4.7473600384,0.17226111000000002,-0.25411568000000007,-0.01710394
48,9.0006,1.8616159828,0.35892339,4.6133619728,0.10140193000000002,-0.3872820700000001,-0.05864208000000001
48,9.0006,1.8568303376,0.32542387359999997,4.6229332632,0.09284996000000001,-0.38972549000000006,-0.06475063000000002
48,9.0006,1.9429719511999999,0.2727817764,4.5511485852,0.10140193000000002,-0.34574393000000003,-0.08918483000000002
48,9.0006,1.938186306,0.3206382284,4.5367916496,0.16493085000000002,-0.28954527,-0.08551970000000002
48,9.0006,1.9716858224,0.3062812928,4.5559342304,0.17836966000000004,-0.24922884000000003,-0.06475063000000002
48,9.0006,1.962114532,0.3062812928,4.522434714,0.17592624000000004,-0.24312029000000004,-0.06597234
48,9.0006,2.0434705004,0.3206382284,4.5176490688,0.16004401000000001,-0.19669531000000004,-0.06108550000000001
49,9.0007,2.0913269523999998,0.287138712,4.5320060044,0.15271375000000004,-0.13560981000000003,-0.06719405
49,9.0007,1.9908284031999999,0.35892339,4.5128634236,0.15149204000000002,0.06719405,-0.08551970000000002
49,9.0007,1.962114532,0.3972085516,4.54636294,0.19303018000000002,0.08185457000000002,-0.05619866000000001
49,9.0007,1.9573288868,0.382851616,4.5607198756,0.20280386000000003,0.08063286000000001,-0.046424980000000005
49,9.0007,1.9334006608,0.3637090352,4.5607198756,0.21624267000000003,0.08185457000000002,-0.039094720000000006
49,9.0007,1.9286150156,0.3780659708,4.5511485852,0.22845977000000003,0.08063286000000001,-0.03176446000000001
49,9.0007,1.9094724348,0.3972085516,4.5894337468,0.23701174000000003,0.07696773000000001,-0.025655910000000004
49,9.0007,1.9238293704,0.3972085516,4.5990050371999995,0.24556371000000005,0.07330260000000001,-0.019547360000000003
49,9.0007,1.962114532,0.382851616,4.6516471344,0.25045055000000005,0.06841576,-0.014660520000000003
49,9.0007,1.9908284031999999,0.3732803256,4.7425743932,0.22479464000000005,0.030542750000000004,-0.010995390000000002
49,9.0007,2.0291135648,0.3541377448,4.7569313287999995,0.21013412000000004,0.024434200000000003,-0.010995390000000002
49,9.0007,2.0051853388,0.35892339,4.761716974,0.19303018000000002,0.015882230000000004,-0.010995390000000002
49,9.0007,2.03389921,0.4019941968,4.7856452,0.15760059,0.004886840000000001,-0.00855197
49,9.0007,2.0243279196,0.4211367776,4.6468614892,-0.00855197,0.013438810000000002,0.025655910000000004
49,9.0007,2.0243279196,0.43549371319999997,4.6229332632,-0.013438810000000002,0.013438810000000002,0.026877620000000005
49,9.0007,2.081755662,0.430708068,4.6085763276,-0.029321040000000007,0.004886840000000001,0.026877620000000005
49,9.0007,2.0721843716,0.4689932296,4.594219392,-0.06230721000000001,-0.00855197,0.03176446000000001
49,9.0007,1.9716858224,0.454636294,4.594219392,-0.08429799000000002,-0.006108550000000001,0.06597234
49,9.0007,1.9525432416,0.45942193919999996,4.6325045536,-0.08551970000000002,-0.0024434200000000004,0.05986379000000001
49,9.0007,1.938186306,0.45942193919999996,4.6277189084,-0.08674141000000002,0.0024434200000000004,0.05375524000000001
50,9.0042,1.9525432416,0.41156548719999997,4.6277189084,-0.08429799000000002,0.00855197,0.046424980000000005
50,9.0042,1.9429719511999999,0.4211367776,4.6277189084,-0.08307628000000002,0.024434200000000003,0.020769070000000004
50,9.0042,1.9238293704,0.4402793584,4.6133619728,-0.08429799000000002,0.03298617,0.004886840000000001
50,9.0042,1.938186306,0.4163511324,4.5990050371999995,-0.07696773000000001,0.05864208000000001,-0.026877620000000005
50,9.0042,1.986042758,0.3780659708,4.5750768112,-0.06352892000000002,0.06597234,-0.029321040000000007
50,9.0042,1.9908284031999999,0.382851616,4.5798624564,-0.06230721000000001,0.06352892000000002,-0.029321040000000007
50,9.0042,2.0051853388,0.382851616,4.5846481016,-0.05986379000000001,0.06230721000000001,-0.028099330000000006
50,9.0042,2.0195422744,0.38763726119999997,4.570291166,-0.03298617,0.05009011000000001,-0.03298617
50,9.0042,2.03389921,0.3445664544,4.522434714,0.030542750000000004,0.036651300000000005,-0.036651300000000005
50,9.0042,2.0195422744,0.3684946804,4.6947179411999995,-0.048868400000000006,0.07574602000000001,0.025655910000000004
50,9.0042,1.986042758,0.3972085516,4.66600407,-0.14294007000000003,0.12339271000000002,0.030542750000000004
50,9.0042,1.9908284031999999,0.3780659708,4.6325045536,-0.14416178000000002,0.12461442000000002,0.030542750000000004
50,9.0042,1.938186306,0.3445664544,4.6229332632,-0.13560981000000003,0.12950126000000003,0.024434200000000003
50,9.0042,1.8376877567999998,0.406779842,4.6229332632,-0.09040654000000002,0.0012217100000000002,0.009773680000000002
50,9.0042,1.8472590472,0.3780659708,4.6516471344,-0.09407167000000001,-0.05131182000000001,-0.007330260000000002
50,9.0042,1.8711872732,0.35892339,4.7042892316,-0.10506706000000002,-0.05742037000000001,-0.00855197
50,9.0042,1.866401628,0.35892339,4.6947179411999995,-0.11117561000000002,-0.05619866000000001,-0.006108550000000001
50,9.0042,1.9573288868,0.3302095188,4.6947179411999995,-0.12217100000000002,-0.048868400000000006,0.003665130000000001
50,9.0042,1.9669001771999999,0.3445664544,4.6229332632,-0.12217100000000002,-0.037873010000000006,0.012217100000000002
50,9.0042,2.0051853388,0.2919243572,4.6037906824,-0.1343881,0.010995390000000002,-0.004886840000000001
51,9.0758,1.9956140484,0.2823530668,4.6372901988,-0.14049665000000003,0.028099330000000006,-0.021990780000000005
51,9.0758,1.9573288868,0.287138712,4.6803610056,-0.16370914000000003,0.035429590000000004,-0.029321040000000007
51,9.0758,1.91425808,0.2536391956,4.6707897152,-0.18569992000000002,0.037873010000000006,-0.025655910000000004
51,9.0758,1.91425808,0.2823530668,4.6755753604,-0.22235122000000004,0.03176446000000001,-0.018325650000000002
51,9.0758,1.9190437251999999,0.2679961312,4.7042892316,-0.28221501000000004,0.023212490000000002,-0.007330260000000002
51,9.0758,2.0243279196,0.2105683888,4.6372901988,-0.4337070500000001,0.015882230000000004,-0.010995390000000002
51,9.0758,2.1152551784,0.1483550012,4.6229332632,-0.5754254100000001,0.025655910000000004,-0.029321040000000007
51,9.0758,2.1152551784,0.1339980656,4.6277189084,-0.6914878600000001,0.06108550000000001,-0.08185457000000002
51,9.0758,2.1104695332,0.08135596839999999,4.6468614892,-0.7122569300000001,0.07085918000000001,-0.09529338000000001
51,9.0758,2.0913269523999998,0.0765703232,4.5990050371999995,-0.7708990100000002,0.10628877000000002,-0.13560981000000003
51,9.0758,1.9764714676,-0.028713871199999998,4.522434714,-0.7818944000000001,0.17959137000000003,-0.20769070000000003
51,9.0758,1.8089738856,-0.0382851616,4.5272203592,-0.7501299400000001,0.20402557000000004,-0.23212490000000005
51,9.0758,1.7563317884,-0.0191425808,4.66600407,-0.8319845100000002,0.22723806000000005,-0.24922884000000003
51,9.0758,1.7371892076,-0.0430708068,4.7473600384,-0.9175042100000002,0.24678542000000003,-0.26633278000000005
51,9.0758,1.722832272,-0.0669990328,4.737788748,-0.9846982600000002,0.25900252000000007,-0.27121962000000005
51,9.0758,1.7036896912,-0.071784678,4.761716974,-1.0201278500000002,0.26022423000000006,-0.26999791000000006
51,9.0758,1.7276179172,-0.08135596839999999,4.7569313287999995,-1.05555744,0.26266765000000003,-0.26999791000000006
51,9.0758,1.7084753364,-0.095712904,4.713860522,-1.0922087400000002,0.26022423000000006,-0.26755449000000003
51,9.0758,1.7180466267999999,-0.0861416136,4.7042892316,-1.1276383300000001,0.25655910000000004,-0.2687762
51,9.0758,1.722832272,-0.0909272588,4.6803610056,-1.1667330500000002,0.25289397,-0.2687762
52,9.0896,1.7324035624,-0.0909272588,4.7234318124,-1.2058277700000002,0.24678542000000003,-0.27121962000000005
52,9.0896,1.79461695,-0.12442677519999999,4.7186461672,-1.2449224900000002,0.24067687000000004,-0.27366304
52,9.0896,1.79461695,-0.1292124204,4.7330031028,-1.28646063,0.23579003000000004,-0.27488475000000007
52,9.0896,1.8137595307999999,-0.1387837108,4.713860522,-1.3304421900000003,0.23334661000000004,-0.27854988
52,9.0896,1.8089738856,-0.1531406464,4.6947179411999995,-1.3756454600000003,0.23090319000000004,-0.28221501000000004
52,9.0896,1.8329021116,-0.143569356,4.66600407,-1.4208487300000003,0.22723806000000005,-0.28221501000000004
52,9.0896,1.8759729184,-0.1531406464,4.6516471344,-1.4660520000000001,0.22357293000000003,-0.28343672000000003
52,9.0896,1.842473402,-0.1483550012,4.6612184247999995,-1.5075901400000002,0.22112951000000003,-0.28343672000000003
52,9.0896,1.8041882404,-0.12442677519999999,4.7090748768,-1.5442414400000002,0.21868609000000003,-0.28588014000000006
52,9.0896,1.866401628,-0.1866401628,4.689932296,-1.5833361600000002,0.21990780000000004,-0.28832356000000003
52,9.0896,1.8999011444,-0.2201396792,4.6516471344,-1.6199874600000002,0.21990780000000004,-0.28710185000000005
52,9.0896,1.8999011444,-0.23928226,4.6516471344,-1.6480867900000002,0.21868609000000003,-0.28343672000000003
52,9.0896,1.890329854,-0.2344966148,4.6707897152,-1.6725209900000002,0.21868609000000003,-0.27977159000000007
52,9.0896,1.8951154991999999,-0.263210486,4.6564327796,-1.6945117700000003,0.21990780000000004,-0.27610646000000005
52,9.0896,1.8759729184,-0.2679961312,4.6707897152,-1.7116157100000002,0.22357293000000003,-0.27244133000000004
52,9.0896,1.8329021116,-0.2823530668,4.6803610056,-1.7238328100000002,0.22723806000000005,-0.26755449000000003
52,9.0896,1.8281164664,-0.2967100024,4.642075844,-1.7311630700000002,0.23212490000000005,-0.26511107000000006
52,9.0896,1.8472590472,-0.30149564759999997,4.6755753604,-1.7372716200000002,0.23945516000000003,-0.26266765000000003
52,9.0896,1.842473402,-0.334995164,4.6851466508,-1.7433801700000002,0.24312029000000004,-0.26022423000000006
52,9.0896,1.8137595307999999,-0.3541377448,4.6516471344,-1.7458235900000003,0.25167226000000004,-0.25900252000000007
53,9.0965,1.8233308212,-0.3780659708,4.6516471344,-1.7446018800000003,0.25778081,-0.26022423000000006
53,9.0965,1.8520446924,-0.4019941968,4.6372901988,-1.7397150400000003,0.26388936,-0.25533739000000005
53,9.0965,1.8329021116,-0.41156548719999997,4.6707897152,-1.7311630700000002,0.26999791000000006,-0.25655910000000004
53,9.0965,1.8137595307999999,-0.43549371319999997,4.6612184247999995,-1.7238328100000002,0.27488475000000007,-0.25533739000000005
53,9.0965,1.8233308212,-0.4642075844,4.66600407,-1.7140591300000003,0.27977159000000007,-0.25533739000000005
53,9.0965,1.8137595307999999,-0.4642075844,4.6995035864,-1.7067288700000003,0.28588014000000006,-0.25533739000000005
53,9.0965,1.7850456596,-0.5024927459999999,4.6995035864,-1.6993986100000003,0.29321040000000004,-0.25533739000000005
53,9.0965,1.7898313047999999,-0.5120640364,4.6803610056,-1.6957334800000003,0.29931895000000003,-0.25167226000000004
53,9.0965,1.7419748527999999,-0.5694917788,4.6755753604,-1.6896249300000004,0.30420579000000003,-0.25167226000000004
53,9.0965,1.7515461432,-0.5599204884,4.6516471344,-1.6871815100000003,0.3103143400000001,-0.25045055000000005
53,9.0965,1.7563317884,-0.5694917788,4.66600407,-1.6871815100000003,0.31642289000000007,-0.24922884000000003
