Packet_ID,Rx_Time_Sec,Acc_X,Acc_Y,Acc_Z,Gyro_X,Gyro_Y,Gyro_Z
0,0.0525,-1.4500504956,-8.4562350684,-33.513873335599996,-0.6694970800000001,-6.591125450000001,-1.2998994400000001
0,0.0525,-63.1513740592,-5.5657053676,-37.3328182052,0.22845977000000003,-3.3352683000000005,-0.39094720000000005
0,0.0525,-28.2448779704,0.45942193919999996,-9.164510558,0.6585016900000001,1.9669531000000002,-0.3103143400000001
0,0.0525,6.9391855399999995,6.4510497296,48.885365717999996,-0.11972758000000001,4.245442250000001,0.43737218000000005
0,0.0525,8.327022648,50.4789855696,20.5830600052,-1.3915276900000002,1.8997590500000003,0.7147003500000001
0,0.0525,27.550959416399998,12.849457361999999,-19.7264295144,-0.26388936,0.8075503100000001,0.37506497000000005
0,0.0525,38.3521606328,-0.2584248408,-26.2923347288,0.09529338000000001,-1.0873219000000003,-0.23823345000000004
0,0.0525,1.2490533972,11.8109723536,23.6698011592,0.19058676000000002,-3.789744420000001,-0.32375315000000005
0,0.0525,15.151352703199999,24.7513569744,32.8678112336,0.19180847000000004,-4.10372389,-0.14660520000000002
0,0.0525,-16.2664080348,47.832523774,-7.5661050612,0.0,-9.133503960000002,0.4801320300000001
0,0.0525,-74.3880689888,36.7346125552,-20.6883441996,0.07452431000000001,-9.1017395,0.4080511400000001
0,0.0525,-81.547394208,17.5968174004,-14.8929278624,-0.028099330000000006,1.3072297000000002,0.4642498000000001
0,0.0525,81.1788995276,-27.5701019972,11.6865455784,0.09040654000000002,10.063225270000002,-1.6309828500000003
0,0.0525,140.7075401704,-9.0735832992,29.383861528,-0.6988181200000001,3.6443609300000004,-1.9840570400000004
0,0.0525,3.5605200288,-20.2097796796,-1.459621786,-0.17836966000000004,-7.8336045200000015,-0.7770075600000002
0,0.0525,-127.7575842592,32.4897452628,-38.1033070824,-0.3518524800000001,-8.864727760000001,0.04031643000000001
0,0.0525,-80.2217704876,32.3653184876,8.9635134596,0.06597234,3.0090717300000005,0.57298199
0,0.0525,6.1351971463999995,30.0921370176,16.4530481976,0.018325650000000002,8.369935210000001,0.5864208000000001
0,0.0525,68.2098010356,29.982067177999998,2.9575287336,0.40560772000000006,6.9759641000000014,0.7354694200000002
0,0.0525,24.2680068092,7.3316084464,-16.6971161028,0.7244740300000001,1.4892644900000003,0.8649706800000001
1,0.1016,-14.0410830168,8.6715891024,16.089339162399998,0.8869614600000001,-1.5698973500000002,-0.12217100000000002
1,0.1016,-35.705698837199996,-0.6604190376,1.842473402,0.8515318700000002,-1.7885834400000002,-0.4447024400000001
1,0.1016,-1.507478238,4.2305103568,-7.1928247355999995,0.39461233000000007,1.7213893900000004,-0.4141596900000001
1,0.1016,-0.1962114532,-0.263210486,-15.156138348399999,0.20280386000000003,3.3047255500000006,0.3982774600000001
1,0.1016,2.63210486,8.3796647452,3.6610185779999997,0.41171627000000005,2.42509435,0.32863999000000005
1,0.1016,3.445664544,-5.2785666556,19.0181540248,0.26144594000000004,2.1135583000000002,0.6585016900000001
1,0.1016,21.9948253392,14.768501087199999,19.7551433856,-0.5326655600000001,-0.18569992000000002,-0.030542750000000004
1,0.1016,18.9320124112,18.18545176,-21.147766138799998,-0.4715800600000001,-1.8875419500000004,-0.6597234000000001
1,0.1016,-13.361521398399999,20.602202586,-43.6833693856,-0.10018022000000001,-1.6041052300000003,-0.35551761000000004
1,0.1016,-35.341989802,21.3009067852,53.7284386604,0.8136588600000001,-2.4092121200000003,-0.24678542000000003
1,0.1016,-9.9972128228,-25.885554886799998,38.2995185356,1.4171836000000002,-0.29687553000000005,-1.0470054700000002
1,0.1016,54.8291370564,-7.6666036104,-20.9802685568,0.05497695000000001,0.9675943200000001,-1.7116157100000002
1,0.1016,43.2765895436,-7.159325219199999,-37.433316754399996,-0.026877620000000005,-3.0872611700000006,-1.6016618100000002
1,0.1016,-10.8682002492,-9.4133641084,-23.971296806799998,0.7794509800000001,-3.0469447400000007,-0.7672338800000001
1,0.1016,-29.3216481404,5.3168518172,18.5060899884,0.4605846700000001,-3.2705176700000007,-0.6548365600000001
1,0.1016,-48.172304583199995,24.2249360024,51.80460929,-0.5033445200000001,0.38483865000000006,0.10384535000000002
1,0.1016,-5.096712138,37.6486707884,-17.0225399764,-0.8759660700000002,3.7188852400000005,-0.035429590000000004
1,0.1016,59.1362177364,13.0743826864,-47.2965315116,0.07208089000000001,3.8960331900000007,-0.22479464000000005
1,0.1016,47.4209582868,3.4408788988,7.6905318364,0.3518524800000001,0.7965549200000002,0.06352892000000002
1,0.1016,1.7850456596,13.6247318844,45.698126014799996,0.5094530700000001,-3.8068483600000005,0.30298408000000004
2,0.1495,-33.1118791388,20.7601288776,5.26420972,-0.08674141000000002,-4.996793900000001,1.1923889600000002
2,0.1495,-70.420769118,53.8050089836,-39.1274351552,-0.5290004300000001,-3.2900650300000005,1.4562783200000002
2,0.1495,-21.7699000148,34.5236444728,-13.256237204,0.25289397,0.23945516000000003,0.9297213100000001
2,0.1495,1.507478238,-14.127224630399999,3.8428730956,0.6023030300000001,3.9522318500000004,0.15149204000000002
2,0.1495,118.9137119296,-7.0396840892,32.1882496152,-0.13072297000000002,6.009591490000001,-2.5912469100000006
2,0.1495,98.5077207968,-7.7958160308,28.1683076472,-0.09284996000000001,-2.7647297300000004,-2.4727410400000003
2,0.1495,-61.926248887999996,-3.6993037396,-51.1154763812,0.32375315000000005,-10.990503160000001,-1.6346479800000002
2,0.1495,-154.00684818119998,25.3447769792,-18.324235470799998,0.24556371000000005,-4.174583070000001,0.14294007000000003
2,0.1495,-61.0121906548,12.1842526792,34.1838636636,0.38972549000000006,6.328457800000001,0.9895851000000002
2,0.1495,45.798624564,41.6877553372,21.0616245252,-0.27244133000000004,10.038791070000002,1.5491282800000004
2,0.1495,68.06144603439999,21.6359019492,-9.6526463684,0.003665130000000001,6.735287230000001,1.9327452200000004
2,0.1495,14.8211431844,18.4869474076,-13.7252304336,0.09284996000000001,0.26144594000000004,0.8796312000000002
2,0.1495,-20.4969183916,-1.483550012,19.4919328996,0.7892246600000001,-0.4337070500000001,-0.23334661000000004
2,0.1495,-28.5607305536,1.5409777544,4.54636294,0.29687553000000005,0.18692163000000003,-0.7330260000000001
2,0.1495,-7.9537423224,4.9005006848,-3.6035908356,0.15760059,2.3921081800000006,-0.34085709000000003
2,0.1495,-10.1838529856,5.0536413312,-24.282363744799998,0.5033445200000001,3.3352683000000005,-0.030542750000000004
2,0.1495,16.9842548148,1.6845471104,3.0340990568,0.7061483800000001,3.7885227100000005,0.18325650000000002
2,0.1495,42.6113848608,-9.968498951599999,36.6197570704,0.25289397,1.1557376600000002,0.19547360000000003
2,0.1495,28.9244395888,27.5222455452,30.623343634799998,-0.8796312000000002,-5.552671950000001,-0.6255155200000001
2,0.1495,-50.8044094432,-2.919243572,-43.721654547199996,-0.9773680000000001,-6.960081870000002,-0.8197674100000001
3,0.1975,-62.9360200252,28.95315346,-41.974894049199996,-1.6639690200000004,-2.0304820200000004,-1.7433801700000002
3,0.1975,32.255248648,27.6706005464,44.3533597136,-0.8283193800000002,4.950368920000001,-2.5558173200000005
3,0.1975,91.7121046128,-16.8119715876,71.9856750984,0.37017813000000005,3.1703374500000003,-2.3285792600000006
3,0.1975,16.5296185208,-25.435704238,-21.41576227,-0.24556371000000005,-7.346142230000001,-2.2174036500000005
3,0.1975,-71.6746081604,-4.402793584,-29.5848586264,-0.34207880000000007,-5.197154340000001,-0.5424392400000001
3,0.1975,-43.716868902,0.6987041991999999,-29.857640402799998,0.5607648900000001,0.9480469600000001,-0.6682753700000001
3,0.1975,10.9160567012,10.52841944,31.470402835199998,0.4715800600000001,5.111634640000001,0.024434200000000003
3,0.1975,17.22832272,32.427531875199996,40.9699085572,-0.7928897900000001,2.6645495100000005,0.49967939000000006
3,0.1975,23.1003093804,25.292134882,-3.1202406704,-0.8124371500000002,-0.20891241000000002,0.09773680000000001
3,0.1975,8.1212399044,6.149554082,-32.4897452628,0.22235122000000004,-1.8240130300000004,-0.5436609500000001
3,0.1975,-16.2807649704,0.550349198,0.24885355039999998,0.27244133000000004,-1.5821144500000002,-0.9223910500000001
3,0.1975,12.4091780036,16.5870462632,37.0265369124,0.4495892800000001,-1.9474057400000002,-1.7091722900000004
3,0.1975,14.500504956,47.9617361944,-0.7944171032,0.11850587000000001,-6.731622100000001,-2.34934833
3,0.1975,1.2011969452,44.50650036,-8.566304908,0.30787092000000005,-9.24101444,-2.6340067600000006
3,0.1975,-60.8351217824,39.146577736,-16.5774749728,0.06719405,-2.9076698000000003,-2.0158215000000004
3,0.1975,-18.0610249848,-19.740786449999998,12.6293176828,0.6829358900000001,2.6694363500000002,-1.6212091700000002
3,0.1975,8.4131642616,-41.7834682412,13.9310131772,0.003665130000000001,2.7696165700000006,-1.5320243400000002
3,0.1975,-3.7854453532,-3.0675985731999997,-13.1940238164,-0.5424392400000001,0.16615256000000003,-1.3817540100000003
3,0.1975,36.5766862636,10.64806057,-17.6303169168,0.047646690000000005,0.5558780500000001,-1.0323449500000001
3,0.1975,2.368894374,48.904508298799996,-12.3565359064,0.55343463,-1.5234723700000004,-1.1862804100000002
4,0.2456,-29.934210726,24.1866508408,26.5316169888,1.1422988500000002,-0.38972549000000006,-1.8166827700000003
4,0.2456,-18.2189512764,22.4494616332,8.6572321668,0.9504903800000002,3.1691157400000005,-2.2992582200000005
4,0.2456,31.1832641232,17.5441753032,-13.2753797848,1.1435205600000002,4.911274200000001,-2.4751844600000004
4,0.2456,24.7848564908,9.69093153,-11.8540431604,1.5430197300000001,1.2510310400000002,-1.6676341500000003
4,0.2456,-21.075981460799998,4.7186461672,-4.3501514868,1.3377724500000001,-1.9180847000000003,-1.9156412800000002
4,0.2456,-21.9613258228,-3.1393832512,6.2979090831999995,0.4288202100000001,2.1331056600000005,-2.0426991200000004
4,0.2456,53.024948816,10.576275892,14.127224630399999,-0.07330260000000001,5.500138420000001,-2.5607041600000002
4,0.2456,41.1230492036,9.2745803976,-3.3930224468,0.8417581900000002,1.4501697700000002,-3.0689355200000006
4,0.2456,1.07677017,3.0580272828,-12.4713913912,1.0250146900000001,-0.7354694200000002,-3.1984367800000006
4,0.2456,-19.2047941876,14.1080820496,14.9934264116,1.3011211500000002,-3.0652703900000007,-3.4061274800000008
4,0.2456,-30.685557022399998,1.7036896912,22.01396792,1.9180847000000003,-2.0268168900000005,-3.2802913500000006
4,0.2456,-15.471990931599999,17.6159599812,-9.1118684608,1.5613453800000003,1.2925691800000003,-2.9773072700000003
4,0.2456,28.7425850712,-15.8787707736,-1.6893327556,1.7702577900000003,2.5888034900000005,-2.2027431300000004
4,0.2456,72.26324251999999,6.077769404,-18.3003072448,0.7366911300000001,-0.8881831700000001,-1.5454631500000002
4,0.2456,-45.58327053,-1.220339526,-1.531406464,1.23514881,-5.959501380000001,0.5864208000000001
4,0.2456,-63.2040161564,18.7932287004,17.276179172,0.6316240700000001,-3.5918274000000006,0.37506497000000005
4,0.2456,-32.255248648,27.684957481999998,21.075981460799998,0.8136588600000001,2.1331056600000005,1.23514881
4,0.2456,-14.5340044724,-23.2438787364,-23.162522768,1.1703981800000003,2.07446358,-0.13927494
4,0.2456,78.5180807964,15.414563189199999,-14.7254302804,0.5595431800000001,4.717022310000001,-1.6187657500000003
4,0.2456,46.133619728,-6.7573310224,15.1274244772,1.8130176400000002,-3.2509703100000005,-2.1807523500000006
5,0.2935,-65.1613450432,17.0943246544,-10.3800644388,0.8894048800000002,-10.327114630000002,-3.2509703100000005
5,0.2935,-72.2345286488,36.7633264264,-7.082754896,0.4654715100000001,-4.503223060000001,-4.561865140000001
5,0.2935,-13.6055893036,31.1258363808,12.5431760692,0.9272778900000002,0.4556978300000001,-5.810452760000001
5,0.2935,15.5820607712,22.2484645348,-21.0281250088,0.9651509000000001,4.779329520000001,-5.983935580000001
5,0.2935,91.16654106,-7.2215386068,7.5278198996,1.4086316300000001,4.06218575,-5.800679080000001
5,0.2935,-2.6177479244,-19.7599290308,13.036097524799999,1.17772844,-6.073120410000001,-5.033445200000001
5,0.2935,-109.70613056479999,3.2255248648,-26.9288255404,1.00424562,-4.508109900000001,-3.5979359500000005
5,0.2935,-79.6953495156,21.7316148532,-17.2570365912,0.8319845100000002,5.239914190000001,-2.0671333200000004
5,0.2935,36.8303254592,58.600225474,32.7529557488,0.9101739500000001,9.121286860000001,-0.7562384900000001
5,0.2935,25.5601310132,15.0652110896,1.3208380752,1.7861400200000004,4.451911240000001,-0.33841367000000006
5,0.2935,-22.3346061484,28.043880872,-5.6662039168,1.1337468800000001,3.4378919400000005,-0.8930700100000002
5,0.2935,24.086152291599998,-16.6253314248,10.9016997656,1.6370914000000003,5.335207570000001,-2.3383529400000005
5,0.2935,121.21560727079999,6.436692794,7.0971118315999995,1.8411169700000003,2.3334661000000003,-4.57530395
5,0.2935,61.040904526,4.9962135888,12.7106736512,1.7079505800000003,-7.544059250000001,-4.9002788100000005
5,0.2935,-71.8899621944,10.8825571848,-12.078968484799999,0.7928897900000001,-10.341775150000002,-4.767112420000001
5,0.2935,-58.7055096684,11.6817599332,-10.5188481496,0.5192267500000001,0.31397947000000004,-4.381052060000001
5,0.2935,33.4995164,7.350751027199999,10.6767744412,0.6633885300000001,3.3059472600000004,-4.304084330000001
5,0.2935,62.2947435684,36.801611588,22.8801697012,0.03420788,-0.16615256000000003,-3.8447213700000007
5,0.2935,5.5896335935999995,6.963113766,-4.7952164904,0.37995181000000006,-2.0378122800000003,-2.7916073500000005
5,0.2935,-38.6057998284,17.0656107832,-24.4594326172,0.22968148000000005,-0.34940906000000005,-3.0164019900000003
6,0.3424,5.3264231076,-3.3643085756,6.1639110176,0.6719405000000002,4.856297250000001,-3.7543148300000007
6,0.3424,68.1906584548,3.5270205124,19.5685032228,0.6707187900000001,5.067653080000001,-2.8539145600000007
6,0.3424,15.342778511199999,-10.624132344,4.5846481016,1.2693566900000002,-1.0824350600000001,-1.01157588
6,0.3424,-67.3435992544,3.7471601916,-19.2047941876,0.7904463700000002,-3.5722800400000008,-0.13072297000000002
6,0.3424,-74.4359254408,7.0444697344,1.0959127508,1.0995390000000003,1.7287196500000004,0.32986170000000004
6,0.3424,4.0821553556,11.763115901599999,12.2464660668,0.8686358100000001,5.6467436200000005,0.4508109900000001
6,0.3424,91.118684608,15.4384914152,14.8020006036,0.35918274000000006,1.5662322200000003,0.27854988
6,0.3424,14.1224389852,40.2616330676,-14.7302159256,0.21624267000000003,-4.996793900000001,0.5009011000000001
6,0.3424,-84.131642616,1.5505490447999999,0.4402793584,0.7232523200000002,-6.086559220000001,0.5778688300000001
6,0.3424,-30.8865541208,2.1726829208,-1.1341979124,0.7794509800000001,-2.23450759,-0.9932502300000001
6,0.3424,23.0763811544,-22.813170668399998,22.4016051812,1.1251949100000003,1.5796710300000003,-1.5198072400000002
6,0.3424,17.8456709508,5.1972106872,-0.3732803256,0.8698575200000002,-1.0005804900000002,-2.2369510100000003
6,0.3424,-12.5527473596,20.410776778,-14.165509792,1.4599434500000001,-4.228338310000001,-3.0261756700000007
6,0.3424,-22.688743893199998,15.7639152888,6.6616181184,1.4770473900000003,-1.5613453800000003,-4.438472430000001
6,0.3424,-15.840485612,35.65305674,13.8209433376,0.7562384900000001,2.4458634200000002,-5.222810250000001
6,0.3424,1.603191142,4.259224228,3.3116664784,0.8270976700000001,4.853853830000001,-4.6950315300000005
6,0.3424,36.3900461008,0.71784678,-1.6414763036,0.7586819100000001,2.8710185000000004,-4.06218575
6,0.3424,-6.2739808572,2.4311077616,-5.3216374624,1.3206685100000002,-2.4886232700000006,-3.1129170800000003
6,0.3424,-46.2484752128,37.9836659524,9.3750789468,1.0066890400000001,-1.9315235100000003,-1.7079505800000003
6,0.3424,6.81954441,34.404003342799996,26.608187312,1.1349685900000002,0.6279589400000001,-0.8820746200000001
7,0.3905,-10.3657075032,46.0426924692,-4.9148576204,1.0848784800000002,-1.6334262700000002,-0.34452222000000005
7,0.3905,-34.7581410876,-5.9294144028,-13.4093778504,1.3341073200000002,-2.42509435,-0.18814334000000002
7,0.3905,-3.1058837348,-23.1577371228,-5.2546384296,1.2840172100000002,0.33352683000000005,-1.4342875400000001
7,0.3905,80.470624038,-1.698904046,-0.4450650036,0.9248344700000002,2.5228311500000005,-3.2692959600000004
7,0.3905,92.769732202,6.1351971463999995,34.6384999576,1.2241534200000002,-2.0732418700000004,-4.172139650000001
7,0.3905,-15.6586310944,19.1425808,-14.7254302804,0.6743839200000001,-8.42002532,-3.7860792900000004
7,0.3905,-79.8389188716,26.775684894,-29.5609304004,0.5033445200000001,-5.265570100000001,-3.4696564000000008
7,0.3905,-64.438712618,2.7948167967999997,0.6843472636,0.6340674900000001,5.3474246700000005,-2.7537343400000003
7,0.3905,40.0893498404,25.564916658399998,29.6279294332,0.5974161900000001,10.408969200000001,-2.4556371000000006
7,0.3905,78.8004338632,6.1351971463999995,5.9676995644,0.9175042100000002,7.079809450000001,-1.0702179600000001
7,0.3905,36.035908356,13.63908882,-5.9054861768,1.12641662,-0.23334661000000004,-1.6493085000000003
7,0.3905,-34.1742923732,0.0047856452,-15.457633996,1.3047862800000003,-2.3933298900000004,-1.7983571200000004
7,0.3905,-31.4129750928,18.9463693468,11.2558375104,1.2827955000000002,-0.37873010000000007,-1.4880427800000002
7,0.3905,40.582271296,6.4893348911999995,18.8697990236,1.3499895500000003,0.26266765000000003,-2.2442812700000005
7,0.3905,29.9868528232,-8.298308776799999,-8.7768732968,1.4074099200000003,-1.8142393500000003,-1.02379298
7,0.3905,-30.8530546044,-1.8951154991999999,-8.638089586,1.0861001900000002,-6.374882780000001,-0.05497695000000001
7,0.3905,-30.1064939532,-0.6795616184,-6.0681981136,0.9382732800000002,-4.945482080000001,1.4037447900000002
7,0.3905,-6.2596239216,34.552358344,3.7088750299999997,0.5619866000000001,-3.7249937900000005,1.3389941600000002
7,0.3905,-59.9354204848,5.9533426288,12.7681013936,0.44836757000000005,-1.2131580300000002,2.9027829600000006
7,0.3905,-33.6048005944,-6.6855463444,-16.8789706204,0.5717602800000001,1.5747841900000004,1.9205281200000004
8,0.4388,54.1447897928,-7.2933232848,-25.7850563376,0.53144385,7.348585650000001,0.6658319500000001
8,0.4388,68.267228778,5.1541398804,25.0002105248,0.6719405000000002,3.5075294100000005,-0.6230721000000001
8,0.4388,15.6299172232,-3.3643085756,3.7663027724,1.1911672500000001,-6.085337510000001,-1.26080472
8,0.4388,-56.638110942,4.9674997176,-26.402404568399998,0.7330260000000001,-5.013897840000001,-1.4489480600000002
8,0.4388,-58.9782914448,24.1962221312,-1.7180466267999999,0.3103143400000001,3.0897045900000006,-1.9034241800000002
8,0.4388,-14.9934264116,8.901300072,4.8717868136,0.32253144000000006,6.901439790000001,-0.5668734400000001
8,0.4388,74.368926408,38.9360093472,3.7280176108,0.25167226000000004,3.4440004900000005,-0.49357084000000007
8,0.4388,36.471402069199996,44.9228514924,11.0117696052,0.10628877000000002,-0.4544761200000001,0.25289397
8,0.4388,-44.8127816528,46.2245469868,4.3022950348,0.27488475000000007,-1.4135184700000003,0.9468252500000002
8,0.4388,-3.541377448,31.058837348,-9.7579305628,0.51556162,1.5430197300000001,1.3793105900000002
8,0.4388,2.4837498588,-26.081766339999998,13.4380917216,0.7611253300000002,1.2681349800000001,2.3200272900000005
8,0.4388,-43.5828708364,-33.1501643004,-13.1270247836,0.6059681600000001,-1.1337468800000001,1.7140591300000003
8,0.4388,20.9036982336,-14.2277231796,-10.4470634716,0.3836169400000001,2.9821941100000005,1.2534744600000003
8,0.4388,67.6259523212,19.3627204792,17.419748528,0.32497486000000003,3.5221899300000006,0.34940906000000005
8,0.4388,0.08135596839999999,27.177679090799998,6.2787665024,0.6279589400000001,-1.7140591300000003,-0.4129379800000001
8,0.4388,-8.7625163612,31.968109935999998,13.75872995,-0.04275985000000001,-2.5936903300000003,-0.8222108300000002
8,0.4388,-29.661428949599998,19.037296605599998,-8.2887374864,-0.08429799000000002,-1.6089920700000002,0.5326655600000001
8,0.4388,-31.800612354,17.9126699836,-9.705288465599999,-0.5338872700000001,0.12094929000000001,1.1471856900000001
8,0.4388,-16.3286214224,18.257236438,7.1688965096,-0.5448826600000001,0.9688160300000002,1.8679945900000003
8,0.4388,6.0681981136,3.7088750299999997,7.0540410248,-0.7012615400000001,1.5796710300000003,2.3346878100000006
9,0.4865,14.5387901176,6.4893348911999995,-8.2025958728,-1.0164627200000003,0.05986379000000001,2.5081706300000004
9,0.4865,-13.6103749488,0.9427721044,-3.3116664784,-0.8270976700000001,-1.8655511700000003,2.5851383600000006
9,0.4865,-34.1407928568,8.0494552264,4.0007993872,-0.29076698000000006,-1.7336064900000003,3.0408361900000007
9,0.4865,27.7232426436,5.1062834284,0.7226324252,-0.34452222000000005,-1.0738830900000003,3.2900650300000005
9,0.4865,-0.3302095188,30.2835628256,-10.6193466988,-1.02379298,-4.13671006,3.707889850000001
9,0.4865,-94.3681376988,-11.3228365432,-6.6329042472,-0.28954527,-3.4366702300000007,3.5637280700000007
9,0.4865,-8.298308776799999,-20.506489681999998,-12.0071838068,-0.48379716000000006,5.729819900000001,1.8533340700000003
9,0.4865,107.413806514,-7.2406811876,28.187450228,-0.6499497200000001,6.859901650000001,0.4752451900000001
9,0.4865,42.6448843772,4.1587256788,25.5218458516,-0.7647904600000002,-2.14410105,0.10873219000000002
9,0.4865,-82.4135959892,5.0057848792,-40.744983232799996,-0.6817141800000001,-3.0371710600000004,0.24067687000000004
9,0.4865,-5.0201418148,6.3026947284,-14.141581566,-1.2998994400000001,4.186800170000001,-0.21746438000000004
9,0.4865,8.7673020064,31.7144707404,18.017954178,-1.6627473100000003,3.720106950000001,0.20158215000000004
9,0.4865,8.939585233599999,20.755343232399998,16.7784720712,-1.2522527500000002,2.3078101900000005,0.8295410900000001
9,0.4865,80.135628874,13.806586401999999,19.223936768399998,-1.4794908100000002,3.6675734200000005,1.1655113400000001
9,0.4865,57.987662888399996,23.2295218008,7.585247642,-0.9627074800000002,-1.2937908900000001,2.6474455700000004
9,0.4865,-63.2997290604,22.8323132492,2.4933211492,-0.43615047000000007,-6.428638020000001,4.679149300000001
9,0.4865,-72.2345286488,28.5511592632,-12.059825904,-0.6230721000000001,-2.1550964400000003,5.597875220000001
9,0.4865,4.2687955184,-5.9102718219999995,27.6706005464,-0.7684555900000001,3.1740025800000007,6.880670720000001
9,0.4865,42.6927408292,-16.0031975488,-18.0562393396,-1.3597632300000002,0.32375315000000005,5.849547480000001
9,0.4865,49.076791526,-15.7064875464,4.1970108404,-1.00546733,0.33841367000000006,5.062766240000001
10,0.5345,66.24290085839999,0.4259224228,28.5511592632,-0.47402348000000005,-0.55343463,3.4537741700000004
10,0.5345,-9.7962157244,21.1669087196,-1.2299108163999999,-0.55709976,-5.180050400000001,3.2094321700000004
10,0.5345,-63.902720355599996,29.804998305599998,-20.3007069384,-0.53144385,-4.782994650000001,2.7085310700000003
10,0.5345,-67.7312365156,29.857640402799998,-5.8241302084,-0.4337070500000001,2.6938705500000006,3.5918274000000006
10,0.5345,23.473589706,22.9088835724,8.9156570076,-0.3054275000000001,7.351029070000001,3.8496082100000004
10,0.5345,39.0125796704,22.875384055999998,27.6275297396,-0.7232523200000002,2.2393944300000004,4.438472430000001
10,0.5345,-29.0440807188,23.0955237352,-12.0981110656,-0.9993587800000001,-1.5723407700000003,4.0059870900000005
10,0.5345,13.5242333352,-11.1409820256,-3.134597606,-0.8026634700000002,0.020769070000000004,3.4134577400000006
10,0.5345,-23.9808680972,-10.2987084704,0.526420972,-0.6572799800000001,-2.4666324900000003,4.664488780000001
10,0.5345,-86.73981925,22.2915353416,1.028913718,-1.1105343900000002,-5.491586450000001,5.001680740000001
10,0.5345,-23.8277274508,19.4010056408,0.669990328,-1.0127975900000001,-1.0274581100000002,4.782994650000001
10,0.5345,-1.5361921092,21.846470338,-7.575676351599999,-0.9236127600000001,-2.2564983700000005,4.603403280000001
10,0.5345,-2.536391956,26.1870505344,-3.780659708,-0.5705385700000001,-3.0127368600000004,4.07073772
10,0.5345,-18.54437515,-13.088739622,7.0923261864,-0.021990780000000005,-3.4293399700000005,2.5558173200000005
10,0.5345,-33.8297259188,4.570291166,0.5551348432,-0.5546563400000001,-2.4947318200000006,0.9773680000000001
10,0.5345,-1.2586246876,2.3832513096,-11.84447187,-0.5619866000000001,0.4960142600000001,0.14782691000000003
10,0.5345,11.0500547668,6.81954441,4.2927237444,-0.25533739000000005,0.6621668200000002,0.41660311000000005
10,0.5345,-24.7465713292,5.5226345608,-18.4103770844,-0.5045662300000001,-0.28954527,0.8051068900000001
10,0.5345,-35.1792778652,14.3425786644,4.9244289108,-1.0897653200000001,3.6773471000000004,0.6902661500000001
10,0.5345,16.773686426,18.7740861196,19.525432416,-1.0592225700000002,8.283193800000001,1.2571395900000002
11,0.5836,71.05247428439999,19.4919328996,-7.0444697344,-1.3108948300000003,5.855656030000001,1.3805323000000003
11,0.5836,25.9908390812,11.916256548,5.5609197223999995,-0.8417581900000002,-1.7714795000000003,1.3402158700000002
11,0.5836,-19.037296605599998,16.1611238404,3.6705898684,-0.47280177000000007,-5.209371440000001,0.4300419200000001
11,0.5836,-4.2161534212,15.07478238,3.8045879339999997,-0.048868400000000006,-1.8325650000000002,0.14538349000000003
11,0.5836,35.2893477048,-13.7539443048,-1.07677017,-0.04398156000000001,-0.6902661500000001,-0.08674141000000002
11,0.5836,39.2279337044,13.4333060764,5.4939206895999995,-0.33719196000000007,-3.5466241300000005,-0.004886840000000001
11,0.5836,26.340191180799998,13.75872995,-29.3551476568,-0.26144594000000004,-6.501940620000001,0.9773680000000001
11,0.5836,-28.6755860384,7.6857461912,-14.2420801152,-0.7391345500000002,-6.956416740000001,2.9150000600000006
11,0.5836,-72.7130931688,17.0799677188,27.8141699024,-0.9333864400000002,-1.6835163800000004,5.320547050000001
11,0.5836,-80.1452001644,-8.7003029736,-7.7910303856,-1.03723179,3.4892037600000005,5.987600710000001
11,0.5836,61.0983322684,4.2975093896,-13.0600257508,-1.2363705200000001,9.919063490000001,5.443939760000001
11,0.5836,122.51251712,7.2311098972,-25.698914723999998,-1.4770473900000003,5.992487550000001,4.55086975
11,0.5836,23.4783753512,20.0901385496,16.9938261052,-0.5412175300000001,-0.9236127600000001,4.521548710000001
11,0.5836,-46.707897152,6.652046828,12.973884137199999,-0.21502096000000004,-3.4195662900000006,3.0750440700000006
11,0.5836,-40.534414844,45.726839886,-3.1298119608,-1.4269572800000003,-1.6419782400000003,2.2418378500000005
11,0.5836,-21.2769785592,30.240492018799998,-23.0141677668,-1.12641662,-0.5485477900000001,1.6199874600000002
11,0.5836,31.4943310612,26.732614087199998,-13.6965165624,-0.8344279300000002,1.28646063,1.7568189800000003
11,0.5836,52.833523008,8.9156570076,15.730415772399999,-0.7916680800000001,0.020769070000000004,1.6541953400000002
11,0.5836,12.370892842,-30.939196218,34.207791889599996,-1.3634283600000001,-3.5551761000000006,2.0255951800000003
11,0.5836,-78.5898654744,11.1122681544,-14.787643668,-1.3108948300000003,-8.01930444,2.56681271
12,0.6315,-151.7575949372,-7.9489566772,-43.812581806,-0.6975964100000002,-1.0140193000000002,4.168474520000001
12,0.6315,-37.56731482,12.2608230024,-0.9906285564,-1.2046060600000001,11.361903000000002,4.213677790000001
12,0.6315,79.5804940308,35.4999160936,46.5212569892,-0.9529338000000002,9.744358960000001,3.9595621100000007
12,0.6315,53.2307315596,16.658830941199998,8.542376682,-0.65605827,1.4428395100000002,3.6284787000000005
12,0.6315,-49.3687158832,27.354747963199998,-25.9286256936,-0.8026634700000002,-2.5765863900000006,2.9711987200000003
12,0.6315,-36.6293283608,19.6977156432,-3.3403803495999997,-0.6511714300000001,1.8117959300000004,2.26505034
12,0.6315,-27.7710990956,9.9876415324,-3.2685956716,-0.5668734400000001,1.5894447100000002,1.9913873000000004
12,0.6315,-25.7084860144,-27.1872503812,16.213765937599998,-0.6841576000000001,0.39583404000000005,1.5002598800000002
12,0.6315,39.3810743508,3.7375889012,17.2618222364,-1.5870012900000003,1.7983571200000004,1.1361903000000002
12,0.6315,69.6359233052,-3.1872397032,-9.7962157244,-1.3108948300000003,-1.5479065700000003,-0.18203479000000003
12,0.6315,-4.4650069716,-3.4695927699999998,-8.805587168,-1.2094929,-6.335788060000001,-0.9004002700000001
12,0.6315,-59.557354514,10.0163554036,5.4364929472,-1.2498093300000002,-5.322990470000001,-1.6541953400000002
12,0.6315,-10.7246308932,25.292134882,10.935199282,-1.3133382500000002,0.6401760400000001,-1.8081308000000003
12,0.6315,23.7415858372,43.0373072836,5.2259245584,-1.4269572800000003,0.48379716000000006,-1.8008005400000002
12,0.6315,54.4989275376,15.6538454492,-12.7681013936,-1.1044258400000002,0.8955134300000002,-1.9486274500000003
12,0.6315,12.275179937999999,-23.1577371228,6.388836342,-0.30420579000000003,1.3854191400000002,0.29565382000000007
12,0.6315,-55.4273427064,-14.127224630399999,-5.7475598852,-0.9126173700000001,-0.7513516500000001,1.0543357300000002
12,0.6315,-52.7282388136,5.1254260092,7.3172515108,-1.4489480600000002,2.7635080200000006,2.1062280400000004
12,0.6315,30.86741154,-0.22971096959999998,13.7300160788,-0.7012615400000001,3.8813726700000006,1.7580406900000003
12,0.6315,34.767712378,17.9461695,-21.5545459808,-0.9284996000000002,3.5148596700000008,2.9162217700000004
13,0.68,16.7593294904,27.177679090799998,3.6466616424,-0.55343463,1.1740633100000002,2.6254547900000005
13,0.68,28.283163132,25.885554886799998,31.791041063599998,-0.4654715100000001,-2.5240528600000003,1.7861400200000004
13,0.68,10.1982099212,34.8586396368,-8.6093757148,-0.52777872,-5.608870610000001,1.5625670900000002
13,0.68,-56.4897559408,27.7423852244,-14.6488599572,-0.3567393200000001,-6.903883210000001,2.2027431300000004
13,0.68,-40.567914360399996,47.1242482844,0.9379864592,-0.4899057100000001,-5.337650990000001,1.2070494800000002
13,0.68,-14.9694981856,-23.9377972904,-13.6438744652,-0.01710394,-0.6462845900000002,-0.38483865000000006
13,0.68,94.229353988,0.2775674216,1.8999011444,-1.1374120100000003,4.6620453600000005,-2.3188055800000003
13,0.68,89.7308475,-9.308079914,25.0719952028,-0.7098135100000001,-0.15393546000000002,-0.9065088200000001
13,0.68,-49.9047081456,0.20578274359999998,-28.8909400724,-0.17470453000000002,-9.370515700000002,0.6108550000000001
13,0.68,-154.1887026988,22.947168733999998,-35.126635768,-0.54732608,-6.214838770000001,1.5112552700000002
13,0.68,-73.244299786,32.5806725216,35.9784806136,-0.3885037800000001,6.396873560000001,2.0072695300000003
13,0.68,80.4610527476,39.9314235488,-2.3641087288,-0.16859598000000003,11.471856900000002,2.4495285500000006
13,0.68,93.21001156039999,19.606788384399998,-10.0546405652,0.28343672000000003,3.5588412300000005,2.05369451
13,0.68,-32.2839625192,9.3750789468,7.9106715156,0.34207880000000007,-3.5588412300000005,1.1850587000000001
13,0.68,-49.1581474944,0.062213387599999996,-0.7752745223999999,0.10751048000000002,-0.6743839200000001,-0.046424980000000005
13,0.68,15.2949220592,2.8187450228,0.5694917788,-0.18936505000000003,1.9205281200000004,-0.32375315000000005
13,0.68,-9.475577496,-8.7720876516,-6.4701923104,-0.030542750000000004,0.27732817000000004,-0.34330051000000006
13,0.68,-19.6881443528,0.0765703232,-31.1880497684,-1.01157588,2.8209283900000006,0.23212490000000005
13,0.68,24.3637197132,3.2207392196,29.2450778172,-0.6988181200000001,3.1251341800000003,0.7305825800000001
13,0.68,15.1657096388,17.0177543312,14.1798667276,-1.1447422700000003,0.21746438000000004,0.37139984000000004
14,0.7278,-14.931213024,13.6534457556,-13.0743826864,-0.8136588600000001,-0.34207880000000007,-0.29809724000000004
14,0.7278,5.7188460139999995,22.995025186,-12.1172536464,-0.35063077000000004,0.5180050400000001,-0.24800713000000005
14,0.7278,27.5270311904,46.157547954,19.927426612799998,0.7244740300000001,-0.15637888000000003,0.07208089000000001
14,0.7278,-41.8935380808,-33.2219489784,32.4514601012,1.5955532600000002,-4.434807300000001,1.1532942400000001
14,0.7278,-74.8187770568,-7.2789663492,-22.564317117999998,0.07208089000000001,-2.3811127900000004,0.08551970000000002
14,0.7278,75.3116985124,-7.8341011923999995,-25.2825635916,-0.26266765000000003,3.8996983200000006,-0.26633278000000005
14,0.7278,59.2415019308,-3.5365918028,-22.923240508,-0.18936505000000003,-1.4941513300000002,0.10262364000000002
14,0.7278,-26.8043987652,-11.8540431604,12.7681013936,-0.24922884000000003,-4.87095777,0.6023030300000001
14,0.7278,-53.2738023664,18.1806661148,26.723042796799998,-0.7953332100000001,-3.1959933600000006,1.0482271800000003
14,0.7278,-28.0821660336,31.4321176736,8.685946037999999,-0.5693168600000001,1.6016618100000002,1.3328856100000002
14,0.7278,34.81556883,25.2729923012,-17.8360996604,0.10140193000000002,1.5906664200000002,1.3683152000000003
14,0.7278,-21.6406875944,10.5810615372,-12.4713913912,1.1606245000000002,1.1166429400000002,1.7873617300000002
14,0.7278,-35.8396969028,1.4165509792,-4.331008906,0.44348073000000005,5.377967420000001,1.5356894700000003
14,0.7278,33.6574426916,23.3730911568,24.3302201968,0.015882230000000004,0.035429590000000004,0.15760059
14,0.7278,26.3162629548,19.5780745132,-4.0965122912,0.037873010000000006,-4.814759110000001,-1.3475461300000002
14,0.7278,1.2155538808,40.9220521052,-29.6518576592,-0.3469656400000001,-1.8899853700000002,-1.7213893900000004
14,0.7278,37.7395980472,27.4552465124,7.6139615132,0.12094929000000001,-0.8356496400000001,-1.4758256800000003
14,0.7278,4.2735811636,15.8452712572,20.2528504864,0.28710185000000005,-3.3780281500000005,-0.05864208000000001
14,0.7278,-93.1812976892,-30.3457762132,-8.709874264,0.41171627000000005,-6.650989240000001,1.2669132700000003
14,0.7278,-128.8582826552,4.7425743932,-10.7724873452,-0.36040445000000004,-1.6554170500000003,2.5191660200000006
15,0.7758,33.906296241999996,-11.0835542832,-24.799213426399998,0.4605846700000001,11.669773920000003,2.1379925
15,0.7758,148.1970749084,36.5049015856,24.4977177788,0.31397947000000004,7.033384470000001,0.15393546000000002
15,0.7758,18.3912345036,20.310278228799998,21.7411861436,0.7892246600000001,-3.7982963900000004,0.10628877000000002
15,0.7758,-69.009003784,21.2769785592,5.4412785924,0.6572799800000001,-2.08668068,-0.5106747800000001
15,0.7758,-11.0596260572,19.1521520904,-10.456634762,0.6389543300000001,2.7476257900000003,-0.7501299400000001
15,0.7758,7.8341011923999995,13.1557386548,-14.194223663199999,0.8124371500000002,0.8723009400000001,-0.5167833300000001
15,0.7758,-6.412764568,9.8153583052,-23.4927322868,0.11728416000000003,2.4177640900000004,0.6084115800000001
15,0.7758,22.1479659856,-2.5268206656,36.1029073888,-0.08796312000000002,5.847104060000001,0.9138390800000001
15,0.7758,52.163532679999996,9.9589276612,26.6895432804,-0.31153605000000006,4.150148870000001,0.27121962000000005
15,0.7758,0.9379864592,-3.6275190615999997,-23.1912366392,-0.5351089800000001,-2.2540549500000004,-0.6975964100000002
15,0.7758,-27.5222455452,17.5728891744,-14.3760781808,-0.4752451900000001,-2.7060876500000006,-0.9248344700000002
15,0.7758,-11.696116868799999,7.3986074792,10.9495562176,0.6597234000000001,0.26388936,-1.0225712700000003
15,0.7758,-10.7007026672,10.030712339199999,5.9150574672,0.5192267500000001,2.2797108600000002,-0.8222108300000002
15,0.7758,30.4558460528,11.653046062,24.311077616,0.05742037000000001,2.29192796,-0.8832963300000002
15,0.7758,61.2371159792,0.5024927459999999,1.6797614652,0.06841576,-3.3157209400000007,0.018325650000000002
15,0.7758,-20.3054925836,-17.5489609484,-28.077380388399998,-0.047646690000000005,-9.379067670000001,1.8008005400000002
15,0.7758,-100.2975521016,5.359922624,-11.4903341252,-1.0873219000000003,-6.334566350000001,2.4263160600000004
15,0.7758,-43.6020134172,18.8219425716,2.4071795356,-1.3634283600000001,2.5790298100000006,2.4922884000000005
15,0.7758,23.066809864,11.0883399284,38.0267367592,-0.6023030300000001,4.737791380000001,3.0237322500000006
15,0.7758,29.336005076,-7.5517481256,6.3505511804,-0.4495892800000001,0.8380930600000002,2.0976760700000003
16,0.8286,24.2010077764,7.5900332872,-21.8895411448,-0.32253144000000006,-0.11850587000000001,1.0970955800000002
16,0.8286,-3.2638100264,14.639288666799999,-15.9074846448,0.16737427000000002,-3.4452222000000003,0.10628877000000002
16,0.8286,-33.427731722,10.2747802444,1.7611174336,0.14294007000000003,-3.6895642000000004,-0.5033445200000001
16,0.8286,-48.3302308748,30.3505618584,15.5629181904,-0.28221501000000004,-1.8203479000000002,-0.9443818300000002
16,0.8286,-3.972085516,23.5645169648,-3.3451659948,-0.7953332100000001,-0.7024832500000001,-1.9547360000000003
16,0.8286,27.4648178028,33.1980207524,0.2584248408,-0.5241135900000001,0.27854988,-2.3249141300000002
16,0.8286,49.225146527199996,-4.043870194,-9.403792818,0.17836966000000004,-1.5637888000000002,-3.1178039200000005
16,0.8286,-11.9593273548,-12.3278220352,17.3527494952,-0.06230721000000001,-3.4916471800000006,-2.36767398
16,0.8286,-44.0470784208,-7.7623165144,0.7130611348,-0.05864208000000001,-4.139153480000001,-1.7042854500000002
16,0.8286,-47.5980271592,28.1970215184,-12.8877425236,-0.09284996000000001,-2.3945516000000002,-0.13560981000000003
16,0.8286,-3.1680971224,35.4759878676,-0.263210486,0.23823345000000004,0.09284996000000001,1.0787699300000002
16,0.8286,-21.1334092032,38.251662083599996,-5.7284173044,0.4654715100000001,1.7128374200000003,2.04758596
16,0.8286,3.326023414,29.1780787844,13.1988094616,0.35063077000000004,3.617483310000001,1.4636085800000003
16,0.8286,-2.4311077616,-24.5790737472,0.7944171032,0.32375315000000005,4.246663960000001,0.7159220600000001
16,0.8286,68.291157004,2.2061824372,5.6135618196,0.12217100000000002,4.200238980000001,-1.5198072400000002
16,0.8286,69.2291434632,-1.3208380752,-3.8572300312,0.34207880000000007,-0.54732608,-1.6664124400000002
16,0.8286,-12.3852497776,12.461820100799999,-9.1262253964,-0.11606245000000003,-5.473260800000001,-1.7238328100000002
16,0.8286,-57.5808830464,13.6486601104,9.2554378168,-0.5668734400000001,-0.9272778900000002,-1.3976362400000002
16,0.8286,-9.5425765288,5.2785666556,3.3355947044,-0.7134786400000002,4.560643430000001,-1.6603038900000002
16,0.8286,55.0540623808,32.7864552652,4.4602213264,-0.8832963300000002,3.9033634500000005,-1.3243336400000003
17,0.8729,59.0117909612,11.2079810584,4.8143590712,-0.28710185000000005,0.41782482000000004,-0.7831161100000001
17,0.8729,-2.4550359876,11.2127667036,-9.2650091072,0.20036044000000003,-4.186800170000001,-0.9761462900000002
17,0.8729,-69.34399894799999,13.8353002732,11.6721886428,0.5937510600000001,-2.00849124,-0.9138390800000001
17,0.8729,27.4169613508,4.4793639072,8.8247297488,0.3359702500000001,4.7854380700000005,-1.6688558600000003
17,0.8729,88.4339376508,4.713860522,-2.057827436,0.30787092000000005,2.2809325700000005,-0.8014417600000001
17,0.8729,8.489734584799999,-13.6486601104,-14.11765334,0.5717602800000001,-5.987600710000001,0.21135583000000002
17,0.8729,-107.629160548,3.5892339,-9.188438784,0.18569992000000002,-5.132403710000001,1.7983571200000004
17,0.8729,-61.878392436,-9.9397850804,20.2528504864,-0.08063286000000001,3.2033236200000004,2.01704321
17,0.8729,12.145967517599999,21.6885440464,18.2668077284,-0.7183654800000001,5.722489640000001,2.4947318200000006
17,0.8729,64.6636379424,7.680960546,-13.361521398399999,-0.49967939000000006,2.1135583000000002,2.4935101100000003
17,0.8729,33.9828665652,40.4769871016,-8.9635134596,-0.26999791000000006,-2.52160944,2.5802515200000005
17,0.8729,-53.0201631708,9.518648302799999,8.6093757148,0.08185457000000002,-3.937571330000001,3.0237322500000006
17,0.8729,-82.289169214,-0.7992027483999999,-0.8662017812,-0.07941115000000001,-3.1287993100000007,1.7604841100000004
17,0.8729,0.023928226,-15.960126742,2.6033909887999998,-0.6389543300000001,1.5870012900000003,0.8283193800000002
17,0.8729,27.4552465124,4.9196432655999995,-17.9030986932,-0.7440213900000001,-0.20891241000000002,-0.3628478700000001
17,0.8729,21.6454732396,25.5697023036,-9.9445707256,-0.34085709000000003,-2.4825147200000006,-1.8020222500000003
17,0.8729,-5.192425042,8.8678005556,13.682159626799999,0.06963747,-3.3389334300000004,-2.9663118800000006
17,0.8729,6.9535424756,32.9156676856,12.1363962272,-0.7794509800000001,-2.4886232700000006,-4.07928969
17,0.8729,-31.8053979992,-6.5228344075999996,14.6057891504,-0.07452431000000001,-1.3573198100000001,-2.46418907
17,0.8729,-77.6997354672,-8.5758761984,-56.724252555599996,-0.24067687000000004,0.5778688300000001,-1.4880427800000002
18,0.9209,-29.8480691124,10.2556376636,-6.8769721524,-0.47280177000000007,5.217923410000001,0.036651300000000005
18,0.9209,37.112678525999996,17.4101772376,48.244089261199996,-0.06108550000000001,3.816622040000001,-0.10995390000000002
18,0.9209,26.9240398952,31.274191381999998,1.9669001771999999,-0.4043860100000001,1.5430197300000001,-0.13927494
18,0.9209,24.04786713,23.4113763184,-8.4083786164,-0.35307419000000007,0.8784094900000001,-0.45691954000000007
18,0.9209,-11.8492575152,21.2434790428,-7.2406811876,0.13560981000000003,-1.2021626400000003,-0.25900252000000007
18,0.9209,-22.8945266368,25.5936305296,-10.7772729904,0.7366911300000001,-0.8625272600000001,-0.32741828000000006
18,0.9209,-35.758340934399996,-0.7752745223999999,15.0173546376,0.37995181000000006,0.04031643000000001,0.33963538000000004
18,0.9209,4.42672181,-19.62114532,14.8498570556,-0.38483865000000006,1.6822946700000003,-0.16493085000000002
18,0.9209,74.4072115696,9.499505722,-16.701901748,-0.30176237000000006,3.4879820500000007,-1.0970955800000002
18,0.9209,62.529240183199995,-3.9146577736,-3.6035908356,-0.15271375000000004,0.5546563400000001,-1.6908466400000002
18,0.9209,8.0781690976,13.7970151116,18.951154992,-0.5461043700000001,-3.1507900900000005,-1.9107544400000003
18,0.9209,-27.4169613508,23.2199505104,-4.3597227772,-0.6194069700000001,-2.3395746500000003,-1.6224308800000002
18,0.9209,-24.6508584252,17.8887417576,-5.8145589179999995,-0.6169635500000001,0.26755449000000003,-1.2681349800000001
18,0.9209,9.705288465599999,30.7286278292,-7.2215386068,-0.42759850000000005,2.5704778400000006,-0.9480469600000001
18,0.9209,42.496529376,16.6444740056,13.6247318844,-0.006108550000000001,3.9326844900000006,-0.5497695000000001
18,0.9209,48.3637303912,6.125625856,7.2406811876,-0.01710394,1.3328856100000002,-1.00546733
18,0.9209,17.324035624,-11.509476706,9.1836531388,-0.026877620000000005,-1.3194468000000001,-0.5546563400000001
18,0.9209,-18.0849532108,-9.001798621199999,-19.3292209628,-0.17226111000000002,-3.1544552200000004,-0.17592624000000004
18,0.9209,-22.554745827599998,-2.3018953412,-8.9922273308,-0.14660520000000002,-0.4593629600000001,0.7904463700000002
18,0.9209,-9.9349994352,-0.2009970984,8.2935231316,-0.20402557000000004,1.4733822600000002,1.2718001100000003
19,0.9689,-1.268195978,11.3467647692,11.9210421932,-0.21379925000000002,1.1545159500000002,2.0439208300000002
19,0.9689,-24.598216328,11.3467647692,-6.3505511804,-0.15271375000000004,-0.4923491300000001,2.4971752400000002
19,0.9689,-4.9674997176,26.1152658564,-1.5409777544,-0.26022423000000006,0.51189649,2.0830155500000003
19,0.9689,36.1029073888,9.3032942688,14.404792052,0.035429590000000004,-0.05497695000000001,1.7604841100000004
19,0.9689,14.2755796316,14.285150922,-2.7134608284,-0.04275985000000001,-3.9449015900000006,2.1673135400000003
19,0.9689,-46.4781861824,8.6668034572,-11.1888384776,-0.5351089800000001,-4.6253940600000005,2.6437804400000005
19,0.9689,-52.2688168744,1.5218351736,-9.9924271776,-0.5448826600000001,-1.8020222500000003,2.1221102700000003
19,0.9689,-31.22633493,3.9290147092,21.343977591999998,-0.22601635000000003,0.7476865200000001,2.11111488
19,0.9689,-9.0257268472,-8.925228298,0.0191425808,-0.4239333700000001,1.0152410100000002,0.9492686700000001
19,0.9689,49.1916470108,14.5340044724,0.6412764568,-0.6756056300000001,1.2070494800000002,-1.0323449500000001
19,0.9689,8.422735552,17.0751820736,-13.677373981599999,-0.19669531000000004,-2.09889778,-2.3713391100000005
19,0.9689,5.9389856932,8.7433737804,-3.8141592244,-0.07818944000000001,-2.3725608200000003,-3.4708781100000006
19,0.9689,-4.737788748,7.5182486092,18.1950230504,-0.16004401000000001,-1.1752850200000002,-2.6559975400000004
19,0.9689,-73.052873978,-10.16949605,-4.3262232608,-0.17470453000000002,-3.759201670000001,-1.6590821800000002
19,0.9689,-60.5766969416,20.267207422,-24.3254345516,-0.53144385,0.47280177000000007,-0.5338872700000001
19,0.9689,26.344976826,20.4777758108,13.926227532,-0.20524728000000003,3.6064879200000006,0.07330260000000001
19,0.9689,16.4482625524,20.8127709748,15.07478238,-0.04398156000000001,0.4642498000000001,-0.20524728000000003
19,0.9689,13.6486601104,13.1318104288,-3.0005995404,-0.38606036000000005,0.8380930600000002,-1.2595830100000003
19,0.9689,19.1473664452,21.8321134024,2.8857440556,-0.3677347100000001,-0.013438810000000002,-1.6847380900000002
19,0.9689,-9.2027957196,15.5581325452,-1.3830514628,0.25778081,-2.2442812700000005,-1.2094929
20,1.0167,-21.942183242,14.7493585064,-5.8576297248,0.49357084000000007,-1.1606245000000002,-0.6914878600000001
20,1.0167,-18.1902374052,12.658031553999999,8.422735552,-0.08185457000000002,1.3536546800000002,0.2846584300000001
20,1.0167,-21.559331626,-20.2528504864,-15.7112731916,-0.4691366400000001,2.8649099500000004,0.3677347100000001
20,1.0167,58.1743030512,15.4289201248,-1.8137595307999999,-0.5607648900000001,7.752971660000001,-0.7293608700000002
20,1.0167,107.89237103399999,-2.8618158296,25.6797721432,-0.13316639000000002,4.37005667,-1.5772276100000002
20,1.0167,25.119851654799998,17.2426796556,15.7495583532,-0.3518524800000001,-4.901500520000001,-1.6615256000000003
20,1.0167,-58.7772943464,17.0751820736,-18.6113741828,-0.19058676000000002,-4.388382320000001,-1.5283592100000003
20,1.0167,-42.759739861999996,27.924239742,-11.0404834764,-0.15515717000000004,1.9803919100000003,-1.3756454600000003
20,1.0167,27.2159642524,27.6418866752,14.5531470532,0.4544761200000001,4.49344938,-1.3976362400000002
20,1.0167,95.3013385128,8.183453292,19.2335080588,0.42759850000000005,4.511775030000001,-0.9138390800000001
20,1.0167,38.6871557968,-6.1160545656,2.129612114,0.27121962000000005,-3.2277578200000003,-0.009773680000000002
20,1.0167,-41.9509658232,-7.5517481256,-18.716658377199998,0.22112951000000003,-5.916741530000001,0.20769070000000003
20,1.0167,-44.6165701996,-3.2398818004,-7.920242806,0.24678542000000003,0.4141596900000001,0.7134786400000002
20,1.0167,14.1224389852,1.7276179172,11.1888384776,-0.08674141000000002,4.06707259,1.1997192200000002
20,1.0167,30.0969226628,17.8456709508,17.276179172,0.007330260000000002,1.6431999500000003,1.8521123600000002
20,1.0167,-25.3304200436,6.9104716688,-7.561319416,0.40194259000000004,-1.6065486500000004,2.3994384400000004
20,1.0167,-32.4179605848,14.9264273788,-13.5960180132,0.13805323000000003,-0.22479464000000005,2.0964543600000005
20,1.0167,13.8257289828,11.696116868799999,10.0833544364,0.24067687000000004,1.9205281200000004,1.9254149600000003
20,1.0167,2.6129622792,11.8349005796,10.2460663732,0.37384326000000007,-0.3885037800000001,2.1526530200000003
20,1.0167,33.3033049468,-0.8757730716,6.8434726359999996,0.11850587000000001,-4.023091030000001,1.9241932500000003
21,1.0652,-26.7900418296,12.911670749599999,-20.003996936,-0.6817141800000001,-6.467732740000001,2.3310226800000002
21,1.0652,-104.8822002032,12.461820100799999,-12.346964616,-0.4911274200000001,-2.8148198400000006,2.6682146400000004
21,1.0652,-19.4680046736,20.568703069599998,7.3555366723999995,-0.35429590000000005,2.8734619200000004,1.6016618100000002
21,1.0652,29.0105812024,-9.8775716928,31.853254451199998,-0.13805323000000003,1.6041052300000003,0.51556162
21,1.0652,23.3156634144,7.7623165144,-17.5537465936,-0.6230721000000001,-1.0738830900000003,-1.2437007800000002
21,1.0652,27.3356053824,6.7381884416,-19.420148221599998,-0.12339271000000002,-1.2217100000000003,-2.3481266200000004
21,1.0652,-14.5579326984,-7.0396840892,-4.5607198756,0.39583404000000005,-2.20762997,-2.5203877300000004
21,1.0652,-47.033321025599996,0.1339980656,4.90528633,-0.06597234,-2.3334661000000003,-2.0854589700000004
21,1.0652,-78.915289348,20.5447748436,8.0973116784,-0.4544761200000001,-1.02379298,-0.7159220600000001
21,1.0652,-12.3421789708,24.985853589199998,-2.0003996936,-0.41171627000000005,2.9980763400000003,-0.21624267000000003
21,1.0652,31.9585386456,22.4781755044,-15.8309143216,-0.28832356000000003,4.405486260000001,0.11972758000000001
21,1.0652,16.3812635196,16.275979325199998,18.6018028924,0.09040654000000002,1.0396752100000002,-0.6585016900000001
21,1.0652,-0.08135596839999999,7.0013989275999995,9.6861458848,-0.07085918000000001,-0.29321040000000004,-1.5369111800000002
21,1.0652,7.4273213504,7.6378897392,-5.9676995644,-0.018325650000000002,-0.5070096500000001,-2.2149602300000004
21,1.0652,8.9682991048,20.8558417816,1.8568303376,-0.037873010000000006,-0.56320831,-1.8301215800000004
21,1.0652,4.2640098732,11.2079810584,-9.786644434,0.4300419200000001,-1.1557376600000002,-0.9993587800000001
21,1.0652,-19.6259309652,17.7882432084,-10.6145610536,0.023212490000000002,-0.035429590000000004,-0.014660520000000003
21,1.0652,-47.1529621556,-1.579262916,21.29612114,-0.58886422,2.1758655100000004,0.5949727700000002
21,1.0652,33.3846609152,-8.5471623272,1.7611174336,-0.5375524,6.560582700000001,-0.4813537400000001
21,1.0652,111.7304584844,15.854842547599999,-5.6614182716,-0.8527535800000001,5.231362220000001,-1.8301215800000004
22,1.1191,44.1619339056,2.9479574432,5.1780681064,-0.33963538000000004,-1.6016618100000002,-1.6700775700000003
22,1.1191,-10.4374921812,26.5220456984,4.5655055207999995,-0.06841576,-3.828839140000001,-1.9412971900000002
22,1.1191,-51.756752838,25.1581368164,7.1641108644,0.48379716000000006,-1.3793105900000002,-1.4147401800000001
22,1.1191,-0.382851616,19.3052927368,11.916256548,0.11972758000000001,3.1740025800000007,-1.7091722900000004
22,1.1191,68.3198708752,9.6287181424,2.7900311516,0.5131182000000001,5.570997600000001,-0.4899057100000001
22,1.1191,56.8630362664,-1.4452648504,-10.3082797608,0.39094720000000005,0.18569992000000002,0.6194069700000001
22,1.1191,-32.7385988132,-12.3086794544,1.6223337227999999,0.5204484600000001,-3.8386128200000007,1.2962343100000002
22,1.1191,-47.5262424812,0.1483550012,8.2887374864,0.10873219000000002,-0.24434200000000003,1.1997192200000002
22,1.1191,2.7086751832,8.5136628108,3.9577285804,0.0012217100000000002,4.129379800000001,1.6383131100000003
22,1.1191,41.0273362996,22.2628214704,-2.4454646972,0.15149204000000002,3.9864397300000007,1.8997590500000003
22,1.1191,4.6372901988,18.2189512764,-0.454636294,0.7269174500000001,-0.5986379000000001,1.7397150400000003
22,1.1191,-18.8506564428,1.411765334,-1.3112667848,0.7855595300000001,-2.1208885600000005,1.6016618100000002
22,1.1191,-23.114666316,10.9016997656,9.9924271776,0.55709976,-1.5589019600000003,1.4660520000000001
22,1.1191,2.1918255016,3.0053851856,12.2321091312,0.35918274000000006,-1.1594027900000001,1.7128374200000003
22,1.1191,22.9663113148,2.1200408236,-7.1784678,-0.07208089000000001,-4.7280177000000005,1.8081308000000003
22,1.1191,-53.216374624,1.4644074312,-17.1421811064,-0.6132984200000001,-7.011393690000001,2.50939234
22,1.1191,-57.475598852,18.42473402,2.4550359876,-1.0909870300000002,-2.06835503,2.3359095200000004
22,1.1191,-9.6000042712,15.988840613199999,-7.106683122,-0.9956936500000002,1.7519321400000003,1.4184053100000003
22,1.1191,22.4638185688,23.5740882552,21.209979526399998,-0.7110352200000001,1.4501697700000002,0.08551970000000002
22,1.1191,7.8532437732,-2.656033086,11.4807628348,-0.025655910000000004,-0.44103731000000007,-1.2265968400000002
23,1.1637,17.5728891744,-4.0773697104,-13.830514628,0.04031643000000001,-0.6389543300000001,-2.0879023900000004
23,1.1637,-6.5754765048,-15.6538454492,-6.7860448936,0.35918274000000006,-1.4171836000000002,-1.9254149600000003
23,1.1637,-78.2883698268,13.4093778504,-21.0951240416,-0.29076698000000006,-2.4617456500000006,-1.1997192200000002
23,1.1637,-48.5599418444,8.6715891024,2.2683958248,-0.23945516000000003,1.3096731200000002,-0.7147003500000001
23,1.1637,20.1810658084,31.781469773199998,14.95514125,-0.9150607900000002,3.5221899300000006,-0.13683152
23,1.1637,27.3212484468,28.9196539436,9.7531449176,-0.5167833300000001,-0.09895851000000001,-0.4349287600000001
23,1.1637,-8.169096356399999,10.121639598,-7.8053873212,-0.04520327000000001,-2.7097527800000005,-1.1374120100000003
23,1.1637,-16.275979325199998,4.5798624564,-5.4029934308,0.012217100000000002,-1.0861001900000002,-1.8215696100000003
23,1.1637,15.8309143216,5.4317073019999995,1.3543375916,0.14294007000000003,0.8942917200000001,-2.6181245300000002
23,1.1637,30.580272828,20.8079853296,15.529418674,0.18569992000000002,0.63040236,-2.1453227600000004
23,1.1637,5.4317073019999995,2.4741785684,-1.7419748527999999,0.5668734400000001,-2.7048659400000004,-1.0140193000000002
23,1.1637,-40.893338234,23.0285247024,-28.8526549108,-0.50212281,-0.6255155200000001,0.05375524000000001
23,1.1637,-44.415573101199996,18.9367980564,17.4053915924,-0.5241135900000001,5.217923410000001,0.29931895000000003
23,1.1637,13.375878334,-21.3152637208,8.4083786164,-0.25045055000000005,9.344859790000001,0.09651509000000001
23,1.1637,118.1384374072,32.035108968799996,16.965112234,-0.9541555100000002,6.503162330000001,-1.6578604700000004
23,1.1637,93.17651204399999,-10.5140625044,8.159525066,0.07208089000000001,-0.29565382000000007,-1.8179044800000004
23,1.1637,-10.7581304096,22.0426817912,-2.9240292171999998,0.19791702000000003,-6.737730650000001,-1.9083110200000004
23,1.1637,-57.5282409492,2.7900311516,2.9336005076,1.12641662,-4.184356750000001,-1.3878625600000003
23,1.1637,-16.4674051332,32.7003136516,17.3527494952,0.50212281,1.2815737900000002,-1.3585415200000002
23,1.1637,45.305703108399996,17.6255312716,2.8187450228,0.5387741100000001,1.7140591300000003,-0.8515318700000002
24,1.2299,71.0094034776,1.6797614652,-13.974083984,0.4031643000000001,1.3157816700000002,0.6817141800000001
24,1.2299,-9.384650237199999,-11.1409820256,-5.1445685899999996,0.33719196000000007,-3.4488873300000007,1.6065486500000004
24,1.2299,-50.632126215999996,5.8815579507999995,16.175480776,0.16004401000000001,-2.7060876500000006,1.5332460500000002
24,1.2299,-8.5136628108,8.638089586,3.2015966388,-0.012217100000000002,1.7995788300000002,1.4807125200000002
24,1.2299,26.3641194068,21.1142666224,-1.4931213024,0.13560981000000003,3.4830952100000006,1.7177242600000002
24,1.2299,14.3042935028,13.0121692988,-6.4941205364,0.7977766300000001,2.6816534500000007,1.7103940000000002
24,1.2299,-11.509476706,7.6235328036,-14.768501087199999,0.7000398300000001,-0.3616261600000001,1.3243336400000003
24,1.2299,-31.470402835199998,3.3930224468,23.641087287999998,0.7782292700000001,-1.4904862000000003,1.4281789900000001
24,1.2299,-4.0630127748,4.2496529376,13.8161576924,0.37506497000000005,-0.1343881,1.5088118500000003
24,1.2299,4.737788748,-0.3732803256,-14.8642139912,0.16859598000000003,-2.1673135400000003,2.1550964400000003
24,1.2299,-32.7912409104,5.5226345608,-9.1214397512,-0.4654715100000001,-4.151370580000001,2.3664522700000004
24,1.2299,-15.4528483508,23.133808896799998,2.129612114,-0.6206286800000002,-2.7207481700000002,1.8655511700000003
24,1.2299,-18.4438766008,15.625131578,-17.70688724,-0.8539752900000002,-1.8802116900000003,1.2375922300000002
24,1.2299,-11.0931255736,21.7076866272,23.8420843864,-0.9040654000000001,1.2363705200000001,0.5033445200000001
24,1.2299,4.5655055207999995,-0.8662017812,10.5714902468,0.0012217100000000002,-0.28954527,-1.3389941600000002
24,1.2299,21.406190979599998,-11.9976125164,-9.5569334644,0.22479464000000005,0.16370914000000003,-1.7641492400000003
24,1.2299,-4.1204405172,-12.897313814,-10.092925726799999,0.23212490000000005,-1.7543755600000004,-1.7580406900000003
24,1.2299,-75.5126956108,12.68195978,-21.0711958156,-0.030542750000000004,-2.8135981300000004,-0.8515318700000002
24,1.2299,-30.5754871828,12.705888006,1.8759729184,-0.1343881,1.3524329700000002,-0.9798114200000002
24,1.2299,3.0963124444,30.642486215599998,25.698914723999998,-0.7000398300000001,3.0481664500000005,-0.38483865000000006
25,1.2587,-0.7034898444,24.5695024568,-1.7180466267999999,-0.5351089800000001,1.9681748100000003,-0.5412175300000001
25,1.2587,17.9365982096,11.940184774,-14.6823594736,-0.3261965700000001,1.3475461300000002,-1.09465216
25,1.2587,4.2209390664,9.308079914,7.1018974768,0.22723806000000005,-1.4672737100000002,-1.6603038900000002
25,1.2587,0.5599204884,0.1579262916,4.7234318124,0.37628668000000004,-1.0592225700000002,-2.4544153900000003
25,1.2587,22.358534374399998,18.4438766008,1.7994025952,0.05986379000000001,1.2412573600000003,-2.21373852
25,1.2587,22.25325018,6.5994047308,7.6283184488,0.18447821000000003,-1.1496291100000002,-1.3841974300000002
25,1.2587,-36.5431867472,27.4121757056,-21.468404367199998,-0.29076698000000006,-1.8985373400000003,-0.35429590000000005
25,1.2587,-52.5128847796,9.1214397512,11.1122681544,-0.2687762,2.8245935200000005,0.29443211
25,1.2587,-10.3417792772,-8.9826560404,9.1740818484,-0.5680951500000001,7.931341320000001,0.048868400000000006
25,1.2587,112.59187462039999,18.4773761172,11.9976125164,-0.8185457000000002,8.55197,-1.4074099200000003
25,1.2587,123.8620690664,-4.043870194,4.8000021356,0.04398156000000001,1.4758256800000003,-1.9632879700000003
25,1.2587,17.5489609484,17.132609816,12.5671042952,0.43248534000000005,-7.721207200000001,-1.7812531800000002
25,1.2587,-81.3272545288,6.6855463444,5.0536413312,1.2314836800000002,-7.508629660000001,-1.2913474700000003
25,1.2587,-48.0622347436,33.0544513964,9.3702933016,0.7733424300000001,1.4648302900000003,-1.3560981000000003
25,1.2587,40.5870569412,16.821542878,-0.4450650036,0.6071898700000001,4.159922550000001,-0.8661923900000001
25,1.2587,87.4959511916,4.5176490688,-11.2031954132,0.6230721000000001,3.4256748400000006,0.8038851800000001
25,1.2587,9.9158568544,-15.352349801599999,0.9427721044,0.5827556700000001,-3.2057670400000005,1.8350084200000003
25,1.2587,-56.0351196468,8.1643107112,20.3246351644,0.35918274000000006,-3.9974351200000005,1.8166827700000003
25,1.2587,-18.582660311599998,9.0640120088,1.4165509792,0.15393546000000002,1.6798512500000002,1.5503499900000002
25,1.2587,32.106893646799996,29.8432834672,-8.3126657124,0.29809724000000004,3.9986568300000007,1.5381328900000002
26,1.3166,27.9194540968,11.6721886428,-5.5800623032,1.03112324,2.1807523500000006,1.3915276900000002
26,1.3166,-9.6765745944,4.0390845488,-8.8008015228,0.9981370700000002,-1.10686926,1.2437007800000002
26,1.3166,-41.0895496872,3.9146577736,23.473589706,0.9187259200000002,-2.8722402100000006,1.2656915600000003
26,1.3166,-18.329021116,-0.7992027483999999,8.7003029736,0.49357084000000007,-0.4337070500000001,1.5735624800000003
26,1.3166,-0.1818545176,2.081755662,-13.7730868856,0.35918274000000006,-1.20338435,2.10500633
26,1.3166,-12.6149607472,4.3501514868,-5.4652068183999996,-0.22357293000000003,-3.1996584900000005,2.4800713000000005
26,1.3166,-13.1988094616,19.0851530576,4.5750768112,-0.6084115800000001,-3.6920076200000005,2.1966345800000004
26,1.3166,-31.7336133212,7.0731836056,-12.299108164,-0.8625272600000001,-3.2705176700000007,1.2815737900000002
26,1.3166,-1.9525432416,25.84248408,-5.0392843956,-1.3414375800000002,2.2626069200000005,0.35796103000000007
26,1.3166,8.4658063588,18.2715933736,33.6526570464,-0.16981769000000002,0.5595431800000001,-0.9822548400000002
26,1.3166,4.3884366484,-19.8269280636,-5.192425042,0.44103731000000007,-1.7006203200000003,-1.9486274500000003
26,1.3166,6.7381884416,-15.0604254444,-4.9866422984,0.07085918000000001,0.047646690000000005,-1.7873617300000002
26,1.3166,-52.9435928476,13.361521398399999,-26.3114773096,-0.23701174000000003,-2.6217896600000006,-0.8771877800000002
26,1.3166,-55.7240527088,10.7246308932,-11.461620254,0.06352892000000002,-0.7134786400000002,-0.5778688300000001
26,1.3166,-5.9964134356,27.4552465124,12.5048909076,-0.5619866000000001,3.0652703900000007,-0.39705575000000004
26,1.3166,13.615160593999999,25.3591339148,31.896325258,-0.5986379000000001,2.4348680300000005,-0.46791493000000006
26,1.3166,12.3900354228,13.4763768832,-11.887542676799999,-0.28099330000000006,0.7684555900000001,-0.9688160300000002
26,1.3166,4.2496529376,11.533404932,-17.5441753032,0.12583613000000002,-0.8246542500000001,-1.4758256800000003
26,1.3166,-3.7232319656,-0.9619146852,8.231309744,0.6316240700000001,-1.2876823400000001,-2.3188055800000003
26,1.3166,8.7529450708,12.1938239696,5.6422756908,0.4288202100000001,1.9522925800000004,-2.2455029800000004
27,1.3551,43.6067990624,6.4701923104,15.7399870628,0.31886631000000004,0.7379128400000001,-1.5075901400000002
27,1.3551,-19.6546448364,30.8961254112,-21.0520532348,-0.4544761200000001,-2.5277179900000006,-0.2846584300000001
27,1.3551,-74.86663350879999,11.0644117024,2.0147566292,-0.27366304,1.7580406900000003,0.35429590000000005
27,1.3551,-23.7559427728,-2.9814569596,4.0199419679999995,-0.2846584300000001,8.989342180000001,0.11728416000000003
27,1.3551,106.9208850584,11.5142623512,34.0211517268,-0.7354694200000002,10.170735750000002,-0.8527535800000001
27,1.3551,138.5635711208,3.637090352,4.7282174576,-0.11239732000000002,2.3713391100000005,-1.9486274500000003
27,1.3551,32.685956716,14.256437050799999,-0.11485548479999999,0.45691954000000007,-7.777405860000001,-1.6041052300000003
27,1.3551,-81.0831866236,10.3274223416,1.5936198516,1.2681349800000001,-8.774321220000001,-1.2522527500000002
27,1.3551,-45.6885547244,24.0813666464,19.2909358012,1.1105343900000002,0.31153605000000006,-1.4171836000000002
27,1.3551,32.1882496152,26.909682959599998,7.441678286,0.7733424300000001,3.1788894200000004,-1.0567791500000001
27,1.3551,84.30392584319999,6.934399894799999,-13.2227376876,0.6413977500000001,2.4678542000000006,0.26388936
27,1.3551,18.4630191816,-11.0213408956,-12.8781712332,0.7330260000000001,-2.4898449800000004,1.7849183100000003
27,1.3551,-58.6097967644,-0.430708068,12.2656086476,0.5204484600000001,-4.084176530000001,2.02926031
27,1.3551,-23.6698011592,12.777672684,19.3627204792,0.22357293000000003,1.2693566900000002,1.7067288700000003
27,1.3551,25.9908390812,22.5738884084,-2.4071795356,0.30298408000000004,3.6920076200000005,1.9303018000000003
27,1.3551,14.4239346328,12.9547415564,-14.2516514056,1.02379298,2.5069489200000006,1.9034241800000002
27,1.3551,-1.9908284031999999,14.8163575392,-16.414763036,0.9126173700000001,0.22845977000000003,1.6444216600000003
27,1.3551,-28.646872167199998,2.99102825,30.5132737952,1.2986777300000003,-2.18930432,1.6199874600000002
27,1.3551,-7.872386354,-2.225325018,24.64607278,0.6511714300000001,-1.9034241800000002,1.8105742200000003
27,1.3551,-15.031711573199999,2.5316063108,-28.043880872,-0.035429590000000004,-3.3597025000000005,2.4617456500000006
28,1.4025,-32.7194562324,4.139583098,-18.7023014416,-0.4801320300000001,-4.118384410000001,2.3713391100000005
28,1.4025,-10.863414603999999,17.051253847599998,3.5557343836,-0.5399958200000001,-3.4782083700000004,1.4941513300000002
28,1.4025,-9.3367937852,18.5970172472,-10.537990730399999,-0.9248344700000002,-1.0518923100000002,0.8967351400000001
28,1.4025,-3.4313076084,23.5980164812,32.2026065508,-1.06899625,0.9443818300000002,-0.43126363000000006
28,1.4025,-2.1343977592,-5.3647082692,2.8091737324,0.015882230000000004,-1.3817540100000003,-1.7824748900000003
28,1.4025,7.0348984439999995,-15.9505554516,-22.3920338908,0.23823345000000004,0.8930700100000002,-2.1795306400000003
28,1.4025,-4.8957150396,8.1499537756,-11.4903341252,-0.12461442000000002,-0.5961944800000001,-1.5857795800000003
28,1.4025,-65.7404081124,16.658830941199998,1.9812571128,0.21257754000000004,-3.4220097100000006,-0.37628668000000004
28,1.4025,-45.0759921388,28.1013086144,-1.2490533972,-0.21502096000000004,0.6817141800000001,-0.5680951500000001
28,1.4025,-2.8378876036,25.220350204,16.8502567492,-0.42637679000000006,4.597294730000001,-0.5253353000000001
28,1.4025,18.5730890212,12.4570344556,-11.7822584824,-0.4825754500000001,3.9815528900000006,-1.1105343900000002
28,1.4025,36.6915417484,14.0410830168,2.8091737324,0.19913873000000004,1.0005804900000002,-1.8741031400000003
28,1.4025,19.6594304816,11.2845513816,7.0061845728,0.7110352200000001,-1.4575000300000003,-2.5582607400000006
28,1.4025,19.7360008048,13.5385902708,23.377876802,0.41049456000000006,-1.1288600400000002,-2.1160017200000003
28,1.4025,-11.2031954132,26.2349069864,-21.0041967828,0.013438810000000002,-2.5118357600000003,-0.8686358100000001
28,1.4025,-50.4598429888,17.175680622799998,-8.1499537756,-0.006108550000000001,1.0580008600000002,0.04031643000000001
28,1.4025,-47.1816760268,-8.0829547428,0.9284151688,-0.14660520000000002,5.3596417700000005,-0.09284996000000001
28,1.4025,76.7569633628,4.8861437491999995,19.5780745132,-0.6242938100000001,10.088881180000001,-1.3878625600000003
28,1.4025,153.5139267256,19.932212258,24.4402900364,-0.4642498000000001,5.205706310000001,-2.9919677900000003
28,1.4025,31.8197549348,3.8955151928,16.582260618,0.4654715100000001,-7.799396640000001,-2.3859996300000006
29,1.4767,-103.1593679312,31.709685095199998,-6.0251273068,0.6365109100000002,-7.806726900000001,-2.7561777600000004
29,1.4767,-12.6388889732,27.2255355428,7.3268228012,0.8723009400000001,4.170917940000001,-2.2222904900000002
29,1.4767,47.2534607048,-13.3902352696,-0.3302095188,0.6572799800000001,3.6895642000000004,-1.4501697700000002
29,1.4767,14.668002538,18.5300182144,-5.4364929472,0.5436609500000001,0.9150607900000002,1.0335666600000002
29,1.4767,19.02293967,-6.2404813408,3.2877382524,0.8295410900000001,-1.0824350600000001,2.01459979
29,1.4767,-18.5300182144,11.9832555808,27.5844589328,0.45814125000000006,-3.6468043500000005,2.1147800100000005
29,1.4767,-36.2608336804,28.7330137808,-7.2406811876,0.4398156000000001,-2.1160017200000003,1.3243336400000003
29,1.4767,21.8560416284,6.9535424756,-14.47657673,0.8356496400000001,2.7256350100000004,0.8026634700000002
29,1.4767,25.0002105248,16.9124701368,-2.2396819536,0.7965549200000002,2.6682146400000004,1.1752850200000002
29,1.4767,-27.933811032399998,2.2396819536,8.3844503904,1.1557376600000002,-3.4672129800000007,1.4184053100000003
29,1.4767,-63.505511804,12.524033488399999,4.3692940676,0.8063286000000002,-5.052992560000001,1.4526131900000003
29,1.4767,-37.5338153036,16.3477640032,6.6616181184,0.4715800600000001,-4.03775155,0.31153605000000006
29,1.4767,28.5272310372,39.8069967736,-4.30708068,-0.4813537400000001,-2.6963139700000003,-0.6780490500000002
29,1.4767,9.8632147572,10.719845248,-19.616359674799998,-0.6719405000000002,-2.3273575500000003,-1.4452829300000003
29,1.4767,-26.0004103716,3.302095188,-25.9812677908,-1.3011211500000002,-0.22723806000000005,-1.9938307200000003
29,1.4767,-49.435714916,-22.2245363088,35.892339,-0.3885037800000001,1.2730218200000003,-1.5466848600000003
29,1.4767,-68.171515874,9.5090770124,4.5655055207999995,-0.4251550800000001,-2.7085310700000003,-1.4721605500000003
29,1.4767,-12.0406833232,-18.7980143456,14.6823594736,0.33841367000000006,1.8789899800000003,-1.7189459700000003
29,1.4767,57.1980314304,53.8432941452,-34.33700431,-0.06108550000000001,2.36767398,-2.4483068400000003
29,1.4767,13.495519464,34.4662167304,-11.4568346088,1.2534744600000003,0.17226111000000002,-2.41287725
30,1.4991,-41.922251951999996,13.591232368,15.7734865792,0.9602640600000002,0.14416178000000002,-3.1141387900000006
30,1.4991,-57.475598852,15.3236359304,15.223137381199999,-0.012217100000000002,3.4586610100000006,-4.065850880000001
30,1.4991,35.6195572236,-5.1828537516,-0.5024927459999999,0.10751048000000002,7.869034110000001,-4.659601940000001
30,1.4991,104.3318510052,19.5541462872,-11.9258278384,-0.05375524000000001,3.0958131400000006,-4.7194657300000005
30,1.4991,71.19604364039999,23.0955237352,-0.5312066172,0.6071898700000001,-2.9614250400000004,-4.139153480000001
30,1.4991,7.1114687672,21.602402432799998,40.8502674272,0.20402557000000004,-5.6015403500000005,-3.771418770000001
30,1.4991,-48.717868136,36.3900461008,24.9762822988,0.28832356000000003,-4.8135374,-3.0273973800000005
30,1.4991,-92.92765849359999,36.466616424,-11.370692995199999,0.39094720000000005,-0.6597234000000001,-2.6450021500000003
30,1.4991,26.5411882792,-26.660829409199998,-34.265219632,0.8515318700000002,9.839652340000002,-3.3878018300000003
30,1.4991,156.7968793328,-6.5419769884,28.2161640992,0.8332062200000001,9.551328780000002,-3.3450419800000004
30,1.4991,87.146599092,-16.5774749728,49.8233521772,1.1435205600000002,-6.464067610000001,-1.2950126000000002
30,1.4991,-76.1013299704,9.6000042712,-5.6135618196,0.4752451900000001,-15.877343160000002,-0.6780490500000002
30,1.4991,-91.980100744,43.0420929288,-18.7262296676,-0.12705784000000003,-6.757278010000001,-0.3054275000000001
30,1.4991,-56.7003243296,39.625142256,-5.8145589179999995,0.4300419200000001,3.1935499400000005,0.6536148500000001
30,1.4991,42.2668184064,37.3136756244,0.023928226,0.47768861000000007,7.621026980000002,0.33963538000000004
30,1.4991,63.0891606716,11.294122672,33.5808723684,0.9211693400000002,5.118964900000001,0.6108550000000001
30,1.4991,18.8745846688,-8.044669581199999,-17.5681035292,0.31642289000000007,-3.4171228700000005,-0.31886631000000004
30,1.4991,-59.3276435444,25.048066976799998,-21.17648001,0.26633278000000005,-7.975322880000001,-0.36529129000000005
30,1.4991,-77.28816997999999,19.5685032228,14.7350015708,1.2827955000000002,-3.617483310000001,-1.4501697700000002
30,1.4991,-30.1447791148,23.3252347048,-7.7623165144,0.8490884500000001,4.289423810000001,-2.1636484100000004
31,1.5473,79.0732156396,6.7860448936,24.8949263304,0.6084115800000001,4.775664390000001,-2.8233718100000003
31,1.5473,59.0261478968,4.7856452,12.80160091,0.27732817000000004,-3.3682544700000006,-1.5967749700000002
31,1.5473,-95.4592648044,-21.272192913999998,-46.9423937668,0.6365109100000002,-9.977705570000001,-0.047646690000000005
31,1.5473,-150.7813233164,12.461820100799999,-37.5098870776,-0.63040236,-4.330961950000001,0.025655910000000004
31,1.5473,-40.0223508076,37.8640248224,83.8397182588,0.12094929000000001,8.427355580000002,-0.25900252000000007
31,1.5473,69.367927174,-13.9932265648,6.7094745704,1.3451027100000001,7.893468310000001,-1.6774078300000004
31,1.5473,109.399849272,18.1232383724,-32.3844610684,0.08918483000000002,3.2619657000000006,-3.5441807100000005
31,1.5473,30.8051981524,21.05683888,20.6213451668,1.25469617,-3.9400147500000005,-4.2601027700000005
31,1.5473,-84.10771439,6.2261244052,-24.5790737472,1.8398952600000003,-6.405425530000001,-5.026114940000001
31,1.5473,-50.488556859999996,5.1110690735999995,-5.5082776252,0.6377326200000001,2.25894179,-5.656517300000001
31,1.5473,16.4913333592,16.7066873932,28.23530668,-0.38117352000000004,6.626555040000001,-5.2240319600000005
31,1.5473,90.5874779908,24.335005842,-8.3892360356,0.17836966000000004,4.769555840000001,-4.373721800000001
31,1.5473,107.88758538879999,16.0223401296,-11.150553316,1.0347883700000002,-1.6541953400000002,-3.4647695600000006
31,1.5473,0.3206382284,32.7242418776,65.4389124648,0.11850587000000001,-7.547724380000001,-2.4055469900000004
31,1.5473,-106.99745538159999,60.729837587999995,22.7988137328,-0.11728416000000003,-6.037690820000001,-2.19541287
31,1.5473,-62.4335272792,-12.016755097199999,-42.8506671208,0.5424392400000001,2.3872213400000004,-2.4666324900000003
31,1.5473,69.1334305592,-22.999810831199998,-20.310278228799998,0.15149204000000002,10.186617980000001,-2.4263160600000004
31,1.5473,154.4710557656,-17.2666078816,40.43870194,0.8515318700000002,6.793929310000001,-2.3456832000000003
31,1.5473,93.7890746296,-4.5080777784,43.6642268048,1.1386337200000003,-8.104824140000002,-0.6963747000000001
31,1.5473,-71.7081076768,7.9728849032,10.987841379199999,0.20280386000000003,-17.411810920000004,-0.3836169400000001
32,1.597,-151.4704562252,65.28098617319999,-42.8028106688,-0.5913076400000001,-8.04373864,-0.17103940000000004
32,1.597,-49.990849759199996,28.2496636156,-27.8859545804,0.15027033000000004,5.176385270000001,0.29931895000000003
32,1.597,69.4540687876,34.3465756004,22.779671152,-0.08918483000000002,8.776764640000001,0.5228918800000001
32,1.597,32.7385988132,1.3591232368,61.141403075199996,0.8319845100000002,4.894170260000001,0.9492686700000001
32,1.597,1.9908284031999999,5.3647082692,-40.103706775999996,-0.21624267000000003,-0.9908068100000001,0.7208089000000001
32,1.597,-56.2409023904,19.525432416,-12.404392358399999,0.32130973000000007,-5.083535310000001,0.9981370700000002
32,1.597,-64.271215036,15.290136414,-4.4075792292,1.0018022000000002,-1.6932900600000003,-0.15149204000000002
32,1.597,-4.6085763276,26.9575394116,8.566304908,0.5717602800000001,5.122630030000001,-0.7867812400000002
32,1.597,85.1222711724,11.0165552504,26.823541346,-0.10506706000000002,2.0854589700000004,-1.9461840300000004
32,1.597,13.328021882,15.888342064,-3.2446674455999998,-0.4825754500000001,-3.4000189300000008,-0.12217100000000002
32,1.597,-147.9386500676,-34.0402943076,-66.7453936044,0.34330051000000006,-5.346202960000001,0.28832356000000003
32,1.597,-117.79387095279999,-4.9722853628,32.8103834912,-0.021990780000000005,-1.3194468000000001,-0.5009011000000001
32,1.597,35.6386998044,5.838487144,50.5651271832,0.19058676000000002,8.55197,-1.5674539300000003
32,1.597,127.848511518,31.7718984828,6.0825550492,0.05497695000000001,4.130601510000001,-3.0151802800000005
32,1.597,16.1659094856,20.4634188752,-28.331019584,1.0506706000000001,-6.413977500000001,-3.2045453300000006
32,1.597,-60.849478718,20.745771942,-8.73380249,1.0665528300000002,-4.713357180000001,-4.189243590000001
32,1.597,-58.523655150799996,20.291135648,11.7870441276,1.0066890400000001,0.12217100000000002,-4.746343350000001
32,1.597,-8.7673020064,6.5898334404,-10.2508520184,-0.028099330000000006,5.562445630000001,-4.275985
32,1.597,95.0046285104,44.5352142312,21.8895411448,-0.018325650000000002,7.658899990000001,-3.0408361900000007
32,1.597,111.074825092,25.0193531056,22.8801697012,1.2656915600000003,-0.5265570100000001,-0.9651509000000001
33,1.6441,-22.4255334072,27.0484666704,4.0821553556,0.5351089800000001,-8.895270510000001,-0.09040654000000002
33,1.6441,-136.4531015876,3.5509487384,24.2345072928,-0.31764460000000005,-3.6773471000000004,0.6719405000000002
33,1.6441,-56.154760776799996,1.698904046,-29.7523562084,-0.6169635500000001,6.511714300000001,-1.4758256800000003
33,1.6441,136.33346045759998,-8.9108713624,-9.9493563708,-0.30909263000000003,12.535966310000003,-3.3267163300000004
33,1.6441,156.7968793328,4.9722853628,61.6295388856,0.07941115000000001,3.6162616000000005,-4.221008050000001
33,1.6441,27.5222455452,-14.5866465696,32.8343117172,0.8099937300000001,-13.228675880000003,-2.4165423800000005
33,1.6441,-141.6024558228,6.8530439264,-28.8909400724,-0.006108550000000001,-16.286616010000003,-1.4562783200000002
33,1.6441,-143.4162153536,26.3114773096,-44.788853426799996,-0.25900252000000007,-2.9259954500000003,0.06963747
33,1.6441,5.958128274,45.6741977888,27.708885708,-0.37506497000000005,8.25631618,1.6590821800000002
33,1.6441,63.960148098,22.4829611496,26.6751863448,0.6963747000000001,7.037049600000001,4.096393630000001
33,1.6441,33.3846609152,19.6402879008,-1.0719845248,-0.15515717000000004,1.3817540100000003,3.6382523800000004
33,1.6441,-8.2600236152,4.713860522,-3.876372612,0.12583613000000002,-3.2851781900000003,2.3420180700000004
33,1.6441,-27.182464736,5.694917788,-9.284151688,0.31642289000000007,-4.0878416600000005,2.0488076700000004
33,1.6441,-51.0197634772,4.0055850324,-15.9505554516,0.4495892800000001,-1.3903059800000002,2.19541287
33,1.6441,-27.0484666704,38.0602362756,10.346564922399999,-0.32008802000000003,-0.11850587000000001,1.2143797400000003
33,1.6441,-3.3930224468,26.723042796799998,4.7952164904,0.010995390000000002,-2.2418378500000005,0.14049665000000003
33,1.6441,-5.3455656884,-7.77667345,-16.0606252912,0.31397947000000004,-1.08854361,-0.6426194600000001
33,1.6441,32.8103834912,-19.5876458036,22.1910367924,0.07085918000000001,1.1984975100000002,-2.0341471500000003
33,1.6441,8.8199441036,-26.6943289256,-8.9060857172,0.33719196000000007,-0.8930700100000002,-2.4996186600000003
33,1.6441,-59.361143060799996,14.2755796316,-10.1742816952,0.037873010000000006,-6.462845900000001,-2.2259556200000006
34,1.6914,-74.584280442,-0.2919243572,7.2885376395999995,0.54732608,-3.0298408000000006,-1.5356894700000003
34,1.6914,-8.939585233599999,72.4163831664,-2.4598216327999998,-0.23334661000000004,4.409151390000001,-1.2522527500000002
34,1.6914,21.0376962992,24.598216328,4.4123648744,0.5241135900000001,4.57163882,-0.8784094900000001
34,1.6914,10.193424276,32.3318189712,4.7090748768,0.25655910000000004,2.4751844600000004,-1.0653311200000002
34,1.6914,46.784467475199996,8.1930245824,12.591032521199999,0.9773680000000001,2.9162217700000004,-1.0934304500000003
34,1.6914,48.8279379756,26.4263327944,11.6243321908,0.8490884500000001,-1.2754652400000002,-0.39216891000000004
34,1.6914,-45.4684150452,14.0123691456,-16.9124701368,0.44836757000000005,-5.30588653,0.6585016900000001
34,1.6914,-68.95157604159999,21.602402432799998,5.647061336,0.17836966000000004,0.8735226500000002,1.0189061400000001
34,1.6914,-0.47856452,-25.3591339148,-4.6516471344,0.34452222000000005,6.035247400000001,0.5668734400000001
34,1.6914,106.863457316,-1.7515461432,19.4488620928,-0.5827556700000001,5.927736920000001,-1.0213495600000002
34,1.6914,121.6558866292,2.3880369548,12.9978123632,-0.18081308000000004,1.3194468000000001,-2.3053667700000005
34,1.6914,36.5527580376,11.581261384,5.1637111708,0.07696773000000001,-7.5135165000000015,-2.4507502600000004
34,1.6914,-121.31610582,29.623143788,-25.0959234288,0.07452431000000001,-8.810972520000002,-1.5576802500000002
34,1.6914,-22.2723927608,45.2291327852,23.205593574799998,-0.25900252000000007,2.1673135400000003,-2.8807921800000003
34,1.6914,42.9607369604,-5.6135618196,-0.6077769404,0.5412175300000001,5.040775460000001,-0.51556162
34,1.6914,48.3637303912,7.1114687672,1.1676974288,0.43737218000000005,1.0005804900000002,1.2400356500000003
34,1.6914,-22.1288234048,-5.7475598852,-8.97308475,0.19547360000000003,-1.6981769000000002,3.3853584100000007
34,1.6914,-65.419769884,4.9962135888,0.5168496816,0.5167833300000001,-2.1404359200000003,3.2008802000000007
34,1.6914,-43.506300513199996,6.81954441,8.7433737804,0.5497695000000001,2.19541287,4.274763290000001
34,1.6914,24.4259331008,15.7256301272,3.0005995404,0.34940906000000005,4.896613680000001,4.404264550000001
35,1.7402,40.888552588799996,17.8313140152,3.2877382524,0.26633278000000005,2.3859996300000006,4.461684920000001
35,1.7402,11.184052832399999,27.5174599,-6.4989061816,0.33963538000000004,-4.363948120000001,4.14892716
35,1.7402,-62.601024861199996,18.2955215996,-15.089139315599999,0.15515717000000004,-7.781070990000002,4.23078173
35,1.7402,-124.9244823008,8.97308475,-1.292124204,0.035429590000000004,-4.814759110000001,3.0726006500000005
35,1.7402,7.4847490928,7.1976103808,27.622744094399998,-0.16737427000000002,2.9125566400000005,0.04153814000000001
35,1.7402,86.4574661832,-15.8931277092,-9.8536434668,-0.037873010000000006,5.193489210000001,-1.9474057400000002
35,1.7402,90.711904766,14.5579326984,2.2540388892,-0.17470453000000002,-1.7727012100000004,-2.7036442300000005
35,1.7402,-45.8416953708,-26.057838114,-4.8191447164,0.7953332100000001,-10.878105840000002,-2.00849124
35,1.7402,-140.123691456,8.8917287816,-9.6622176588,0.20524728000000003,-7.4805303300000014,-1.2302619700000001
35,1.7402,-98.3258662792,27.996024419999998,6.005984725999999,-0.06352892000000002,4.207569240000001,0.12827955000000002
35,1.7402,18.6735875704,44.415573101199996,11.5381905772,-0.28954527,10.297793590000001,1.2632481400000002
35,1.7402,92.4778078448,32.709884942,-6.0107703712,0.11606245000000003,7.161664020000001,1.4562783200000002
35,1.7402,69.1573587852,27.6275297396,11.629117835999999,0.30909263000000003,0.20158215000000004,0.7159220600000001
35,1.7402,-4.2879380992,20.2097796796,30.9966239604,0.4801320300000001,-2.8649099500000004,1.0799916400000003
35,1.7402,-50.6991252488,18.582660311599998,-14.6297173764,0.31764460000000005,-4.379830350000001,1.4159618900000002
35,1.7402,-45.999621662399996,6.1926248888,-11.413763802,0.025655910000000004,-0.6023030300000001,1.3463244200000002
35,1.7402,-23.497517932,-25.3208487532,-19.7360008048,-0.007330260000000002,3.1116953700000005,0.6914878600000001
35,1.7402,116.08060997119999,-6.8339013456,11.313265252799999,-0.31520118,6.793929310000001,-1.0030239100000002
35,1.7402,146.0196063424,8.590233134,45.9804790816,-0.44836757000000005,2.1489878900000003,-1.5833361600000002
35,1.7402,12.945170266,0.6556333924,8.3222370028,-0.27732817000000004,-10.158518650000001,-2.2186253600000003
36,1.8018,-144.3398448772,56.9348209444,-40.582271296,-0.8759660700000002,-11.056475500000001,-1.5442414400000002
36,1.8018,-50.5172707312,21.320049366,-5.0632126216,-0.44225902000000006,4.500779640000001,-1.9791702000000004
36,1.8018,60.5479830704,9.5665047548,23.1529514776,-0.004886840000000001,10.151188390000002,0.026877620000000005
36,1.8018,59.2750014472,3.1489545415999998,42.8219532496,0.3518524800000001,4.57163882,1.7543755600000004
36,1.8018,-13.2035951068,-29.001009912,-27.6083871588,-0.010995390000000002,-0.52777872,3.508751120000001
36,1.8018,-31.666614288399998,26.1726935988,-23.6219447072,-0.7501299400000001,-2.4910666900000002,3.765310220000001
36,1.8018,-31.585258319999998,8.3078800672,19.0612248316,0.9932502300000001,-0.7232523200000002,4.4775671500000005
36,1.8018,-30.187849921599998,0.30149564759999997,-0.7274180704,0.7012615400000001,4.00965222,4.5349875200000005
36,1.8018,26.3832619876,25.507488916,23.6841580948,-0.16737427000000002,3.8422779500000006,4.39082574
36,1.8018,57.3176725604,15.31406464,11.102696864,-0.28221501000000004,-4.1904653000000005,3.9473450100000007
36,1.8018,-54.101718986,37.591243046,-53.0632339776,-0.16126572000000003,-11.899455400000003,3.5979359500000005
36,1.8018,-149.6854105656,14.2899365672,-7.479963447599999,-0.18203479000000003,-6.158640110000001,2.9565382000000007
36,1.8018,-4.0486558392,28.689942974,54.283573503599996,-0.9101739500000001,5.1788286900000005,0.4654715100000001
36,1.8018,113.1039386568,-35.0261372188,5.4604211732,-0.04153814000000001,4.5557565900000005,-1.9254149600000003
36,1.8018,64.0175758404,5.685346497599999,-9.1357966868,-0.8490884500000001,-3.5258550600000005,-1.7824748900000003
36,1.8018,-80.03034467959999,-24.3876479392,-29.1828644296,0.35307419000000007,-9.038210580000001,-0.8173239900000001
36,1.8018,-117.1238806248,3.9098721284,-2.5459632464,0.29809724000000004,-2.8087112900000006,0.07330260000000001
36,1.8018,-37.1461780424,19.5158611256,23.1720940584,-0.38117352000000004,4.328518530000001,0.21624267000000003
36,1.8018,8.303094422,74.7613493144,17.850456596,-1.0091324600000002,6.988181200000001,1.4501697700000002
36,1.8018,51.7615384832,11.4664058992,-28.2448779704,-0.12094929000000001,5.759140940000001,1.5967749700000002
37,1.8374,34.2700052772,24.0287245492,0.9188438783999999,0.24678542000000003,2.11966685,0.7696773000000001
37,1.8374,17.6638164332,8.2169528084,45.0999203648,0.6267372300000001,-0.09773680000000001,-0.15027033000000004
37,1.8374,23.8899408384,21.975682758399998,9.6526463684,0.07208089000000001,-3.0432796100000004,0.023212490000000002
37,1.8374,-1.148554848,23.7415858372,-32.42274623,-0.12827955000000002,-4.0756245600000005,1.06899625
37,1.8374,-58.408799666,9.308079914,-11.796615418,-0.009773680000000002,-2.3847779200000003,1.6077703600000002
37,1.8374,-31.8580400964,-28.2400923252,2.2157537276,0.05986379000000001,1.4342875400000001,1.04944889
37,1.8374,108.4092207156,12.653245908799999,36.3613322296,-1.09465216,6.7548345900000015,-0.35796103000000007
37,1.8374,136.5440288464,-0.47856452,16.8358998136,-0.8246542500000001,0.4764669000000001,-1.11419952
37,1.8374,-49.4309292708,25.435704238,-25.1150660096,-0.6157418400000001,-10.693627630000002,-0.37873010000000007
37,1.8374,-94.5595635068,19.989640000399998,-21.085552751199998,-0.15393546000000002,-3.1165822100000007,-0.5290004300000001
37,1.8374,18.9224411208,20.6117738764,34.1407928568,-0.09407167000000001,6.013256620000001,-0.14416178000000002
37,1.8374,43.453658415999996,0.0526420972,18.5635177308,-0.24556371000000005,3.3963538000000004,1.7165025500000002
37,1.8374,9.0161555568,10.1024970172,-22.7605285712,0.26511107000000006,-0.33719196000000007,3.3719196000000005
37,1.8374,-35.1936348008,-1.339980656,-28.7521563616,0.13194468,-0.29443211,4.466571760000001
37,1.8374,-37.538600948799996,19.027725315199998,19.1473664452,0.4666932200000001,1.2791303700000003,4.459241500000001
37,1.8374,6.8578295716,2.6033909887999998,35.5382012552,0.7281391600000001,2.18319577,5.01878468
37,1.8374,13.7970151116,16.0845535172,-15.3284215756,0.05009011000000001,-0.6621668200000002,5.071318210000001
37,1.8374,12.203395259999999,15.8117717408,-4.1491543883999995,0.32130973000000007,-3.3804715700000005,5.3474246700000005
37,1.8374,-24.406790519999998,23.234307446,-18.9846545084,0.52167017,-6.7340655200000015,4.9821333800000005
37,1.8374,-70.7126934752,32.6907423612,-1.5601203352,0.3054275000000001,-6.494610360000001,4.618063800000001
38,1.8875,-75.996045776,-0.8231309743999999,21.6406875944,-0.16493085000000002,-3.2167624300000006,3.1642289000000003
38,1.8875,14.524433182,1.9764714676,13.6055893036,-0.35307419000000007,3.1678940300000007,0.6682753700000001
38,1.8875,88.821574912,-18.2955215996,-39.7112838696,-0.05131182000000001,4.2148995000000005,-0.8930700100000002
38,1.8875,43.2718038984,-2.5986053436,24.1818651956,-0.028099330000000006,-3.3694761800000004,-0.7330260000000001
38,1.8875,-101.3503940456,-12.1938239696,-23.665015514,0.43737218000000005,-9.054092810000002,0.33841367000000006
38,1.8875,-108.2321518432,24.1722939052,-8.829515394,-0.26144594000000004,-1.8252347400000002,0.5461043700000001
38,1.8875,-20.362920326,51.254260091999996,24.8231416524,-0.3677347100000001,6.967412130000001,1.6737427000000002
38,1.8875,31.3411904148,17.7212441756,-13.3088793012,0.04398156000000001,7.199537030000001,2.4397548700000002
38,1.8875,66.6831802168,36.5766862636,-0.34935209959999997,-0.22601635000000003,3.7420977300000007,1.9547360000000003
38,1.8875,5.1972106872,-5.3216374624,21.4109766248,0.37506497000000005,-1.3108948300000003,1.2644698500000002
38,1.8875,1.651047594,33.0592370416,-2.0961125976,-0.32253144000000006,-0.9040654000000001,0.5253353000000001
38,1.8875,26.5699021504,8.542376682,1.5026925928,0.16615256000000003,-0.8625272600000001,1.5466848600000003
38,1.8875,-0.16271193679999998,31.082765574,-15.744772708,-0.35918274000000006,-4.15259229,2.0695767400000005
38,1.8875,-87.1753129632,-12.107682356,-1.67497582,-0.13805323000000003,-2.0952326500000003,2.4666324900000003
38,1.8875,-1.746760498,-25.4309185928,-5.4125647212,-1.0103541700000003,6.161083530000001,1.2094929
38,1.8875,148.2305744248,24.000010678,36.3613322296,-1.6224308800000002,9.162825000000002,-0.04153814000000001
38,1.8875,113.80264285599999,-16.5009046496,10.2508520184,-0.05619866000000001,-4.14037519,-0.9810331300000001
38,1.8875,-114.2046370528,52.9962349448,-33.5090876904,-0.8295410900000001,-11.868912650000002,-0.13805323000000003
38,1.8875,-66.38647021439999,23.5310174484,14.6871451188,-0.26022423000000006,1.2412573600000003,-0.8405364800000001
38,1.8875,40.1707058088,1.8807585636,11.892328322,-0.07452431000000001,6.973520680000001,0.26388936
39,1.937,37.3711033668,1.3734801723999999,-3.1058837348,-0.17348282000000004,2.6498889900000004,1.9070893100000004
39,1.937,-9.7435736272,-2.0386848552,-11.12662509,0.09040654000000002,-0.4666932200000001,3.9290193600000007
39,1.937,-40.5727000056,-2.9288148624,-10.5188481496,-0.36529129000000005,0.9529338000000002,4.466571760000001
39,1.937,-1.0336993632,12.1698957436,10.2029955664,-0.4349287600000001,3.5282984800000006,4.586299340000001
39,1.937,3.8524443859999997,17.8360996604,26.0961232756,-0.01710394,0.6487280100000001,5.068874790000001
39,1.937,-26.129622792,12.9355989756,-13.5242333352,0.12339271000000002,-0.38117352000000004,5.046884010000001
39,1.937,0.11485548479999999,18.1328096628,-6.3361942448,0.03298617,1.6004401000000004,4.7854380700000005
39,1.937,-17.2474653008,29.5944299168,8.0685978072,0.026877620000000005,-3.7567582500000007,3.5380721600000005
39,1.937,-23.0811667996,41.4245448512,-10.3752787936,-0.09651509000000001,-5.516020650000001,2.3798910800000006
39,1.937,-17.558532238799998,31.6713999336,8.5710905532,-0.5644300200000001,-1.5198072400000002,1.4941513300000002
39,1.937,-18.5108756336,-20.382062906799998,2.2061824372,-0.23823345000000004,-0.26999791000000006,0.6878227300000002
39,1.937,15.5629181904,-46.516471343999996,7.6474610296,-0.22479464000000005,0.4825754500000001,0.2687762
39,1.937,-49.3543589476,-12.3565359064,-9.6574320136,-0.3872820700000001,-2.8917875700000004,1.2192665800000002
39,1.937,-85.01698697799999,6.6089760212,-9.3176512044,-0.42026824000000007,-1.9046458900000003,1.4660520000000001
39,1.937,21.1812656552,19.4249338668,11.0213408956,-0.27854988,3.1043651100000007,0.8955134300000002
39,1.937,45.0759921388,52.9579497832,9.7962157244,-0.27610646000000005,1.5271375000000003,0.13072297000000002
39,1.937,-4.30708068,34.5380014084,0.49770710079999997,0.010995390000000002,1.7543755600000004,0.58886422
39,1.937,-26.5316169888,8.3126657124,-9.3511507208,0.40072088000000006,1.1960540900000003,-0.05986379000000001
39,1.937,12.203395259999999,16.3477640032,10.073783146,0.32008802000000003,0.7147003500000001,-0.4605846700000001
39,1.937,4.618147618,-4.6755753604,4.5080777784,0.4337070500000001,-2.24061614,-0.6756056300000001
40,1.9807,6.8339013456,8.5615192628,-10.40877831,-0.35551761000000004,-0.05497695000000001,-1.0775482200000002
40,1.9807,62.620167441999996,17.994025952,2.5411776012,-0.6194069700000001,6.034025690000001,-0.6548365600000001
40,1.9807,67.2574576408,17.8456709508,19.5924314488,-0.21502096000000004,-1.8484472300000003,-0.46791493000000006
40,1.9807,-47.425743931999996,31.7623271924,5.1541398804,-0.22845977000000003,-7.702881550000002,0.4605846700000001
40,1.9807,-101.4508925948,27.39781877,1.0049854919999999,-0.4495892800000001,-2.4751844600000004,1.3267770600000002
40,1.9807,11.629117835999999,-22.9088835724,-19.3962199956,-0.44836757000000005,6.506827460000001,-0.12950126000000003
40,1.9807,143.0764345444,-14.132010275599999,12.1028967108,-0.5326655600000001,9.661282680000001,-0.29443211
40,1.9807,100.0391272608,-14.3617212452,20.1188524208,0.21868609000000003,-2.1355490800000005,0.38483865000000006
40,1.9807,-42.807596314,13.1174534932,5.5465627868,-0.020769070000000004,-12.316058510000001,1.9632879700000003
40,1.9807,-79.7862767744,25.6941290788,-9.513862657599999,0.004886840000000001,-8.180570160000002,2.0732418700000004
40,1.9807,-81.6383214668,23.8037992248,-22.813170668399998,-0.09040654000000002,1.0360100800000003,2.9333257100000005
40,1.9807,20.4155624232,38.8163682172,-5.0440700408,0.07574602000000001,8.734004790000002,2.9528730700000003
40,1.9807,96.8710301384,6.723831506,45.5449853684,0.8148805700000001,6.152531560000001,3.5893839800000005
40,1.9807,19.6259309652,16.7114730384,-8.1499537756,0.18936505000000003,-5.843438930000001,2.8636882400000006
40,1.9807,-82.0068161472,13.935798822399999,-22.803599378,0.04031643000000001,-9.057757940000002,1.5222506600000003
40,1.9807,-51.9768925172,32.3222476808,-7.3220371559999995,-0.01710394,-1.4953730400000003,0.4960142600000001
40,1.9807,12.3565359064,5.7475598852,8.1020973236,0.7269174500000001,3.3548156600000008,-0.6682753700000001
40,1.9807,40.055850324,0.6604190376,4.450650036,0.3628478700000001,1.8863202400000003,-1.1080909700000001
40,1.9807,3.2829526072,-2.8043880872,24.2010077764,0.28832356000000003,-2.7073093600000004,0.5082313600000001
40,1.9807,-69.176501366,-9.9349994352,-39.017365315599996,0.7806726900000002,-7.540394120000001,1.8594426200000003
41,2.0283,-114.49656141,13.0313118796,-12.5431760692,0.5082313600000001,-3.1495683800000007,2.9296605800000006
41,2.0283,-34.9256386696,43.578085191199996,17.898313048,-0.18936505000000003,4.646163130000001,2.6816534500000007
41,2.0283,13.710873498,-4.3453658416,20.5112753272,0.5192267500000001,4.434807300000001,2.9137783500000003
41,2.0283,33.834511563999996,-5.3982077855999995,-31.1736928328,0.06597234,3.1385729900000006,0.7855595300000001
41,2.0283,53.3455870444,19.5876458036,16.079767871999998,0.20280386000000003,3.1984367800000006,-1.0127975900000001
41,2.0283,-6.867400862,4.2017964856,14.2947222124,1.1386337200000003,-3.7274372100000006,-1.7665926600000004
41,2.0283,-13.103096557599999,-3.0197421211999997,-19.1330095096,0.57909054,-6.445741960000001,-2.8697967900000005
41,2.0283,-24.4115761652,15.2087804456,-27.6897431272,-0.4337070500000001,-1.1080909700000001,-2.8148198400000006
41,2.0283,-6.5611195692,20.3389921,14.0602255976,-0.26266765000000003,3.0811526200000006,-2.1587615700000002
41,2.0283,16.7832577164,0.2775674216,9.6765745944,0.6230721000000001,3.7457628600000006,-1.4122967600000003
41,2.0283,47.0476779612,6.9966132824,16.7114730384,-0.42026824000000007,2.9418776800000006,-2.0524728000000003
41,2.0283,16.6014031988,19.908284032,23.234307446,-0.5045662300000001,-2.4507502600000004,-2.1880826100000004
41,2.0283,-37.5051014324,6.326622954399999,-42.8219532496,-0.05742037000000001,-1.7555972700000002,-2.6144594000000003
41,2.0283,38.821153862399996,21.7411861436,-10.3417792772,-0.039094720000000006,6.078007250000001,-2.5973554600000006
41,2.0283,68.5878670064,-3.876372612,50.4454860532,0.4190465300000001,2.9931895000000006,-1.1655113400000001
41,2.0283,5.3503513336,12.1890383244,9.8153583052,0.19913873000000004,-6.132984200000001,0.6682753700000001
41,2.0283,-97.20123965719999,7.0875405412,-27.871597644799998,0.32741828000000006,-6.165970370000001,3.3022821300000005
41,2.0283,-64.9220627832,10.0067841132,-10.983055734,0.10018022000000001,2.0756852900000005,3.1984367800000006
41,2.0283,40.692341135599996,-12.6915310704,2.4550359876,0.3982774600000001,7.900798570000001,2.5472653500000004
41,2.0283,107.57173280559999,9.4851487864,11.5238336416,0.07941115000000001,5.616200870000001,0.9737028700000001
42,2.0772,64.031932776,24.909283266,30.4510604076,0.27854988,-2.3579003000000003,0.34452222000000005
42,2.0772,-28.7952271684,16.0941248076,-6.3696937612,0.7867812400000002,-9.08097043,-0.40560772000000006
42,2.0772,-84.1603564872,24.2010077764,-35.3228472212,0.5436609500000001,-4.520327000000001,-0.7953332100000001
42,2.0772,-52.6133833288,28.0486665172,6.46062102,0.29198869000000005,3.1703374500000003,-0.9407167000000002
42,2.0772,50.2827741164,10.7054883124,17.5202470772,0.5228918800000001,6.444520250000001,-0.7427996800000001
42,2.0772,71.4879679976,16.079767871999998,2.4741785684,0.24434200000000003,1.5417980200000003,-0.9798114200000002
42,2.0772,-3.7088750299999997,-1.9812571128,-1.6845471104,0.5546563400000001,-3.0542750000000005,-0.7293608700000002
42,2.0772,-44.673997942,-16.6923304576,-2.1487546948,0.32863999000000005,-1.4403960900000001,-0.26022423000000006
42,2.0772,-75.589265934,-8.877371845999999,-18.0227398232,0.44225902000000006,-0.4703583500000001,1.0189061400000001
42,2.0772,-64.72585133,12.418749294,14.979069476,0.21746438000000004,1.9632879700000003,1.3157816700000002
42,2.0772,3.3643085756,20.702701135199998,4.0103706776,0.19180847000000004,5.792127110000001,1.6676341500000003
42,2.0772,51.780681064,23.775085353599998,-3.9625142256,0.4556978300000001,3.4268965500000004,1.3585415200000002
42,2.0772,40.8837669436,21.726829207999998,10.159924759599999,0.7489082300000002,-1.9229715400000003,0.7818944000000001
42,2.0772,-22.9280261532,10.667203150799999,9.7531449176,0.8576404200000002,-6.765829980000001,-0.13927494
42,2.0772,-56.4610420696,18.0323111136,-16.721044328799998,0.4337070500000001,-5.905746140000001,-0.4642498000000001
42,2.0772,-44.8510668144,-17.7691006276,0.6269195211999999,0.39949917000000007,-1.8362301300000003,-0.26022423000000006
42,2.0772,10.1742816952,16.8646136848,2.3066809864,0.15760059,1.5149204000000003,-0.7757858500000001
42,2.0772,17.7978144988,-15.7160588368,19.6737874172,0.6389543300000001,0.8991785600000002,-0.12461442000000002
42,2.0772,-4.8191447164,0.8327022648,-11.8779713864,-0.25778081,-1.15818108,-1.1300817500000002
42,2.0772,11.7918297728,-10.8490576684,2.225325018,-0.009773680000000002,1.3218902200000002,-1.6346479800000002
43,2.1257,24.9667110084,13.7778725308,-7.8197442568,-0.046424980000000005,-0.06719405,-2.4360897400000003
43,2.1257,2.8857440556,9.5090770124,-0.8662017812,0.23090319000000004,-0.7427996800000001,-2.6364501800000006
43,2.1257,-8.590233134,16.6636165864,13.4093778504,-0.04153814000000001,0.4508109900000001,-2.7354086900000003
43,2.1257,-8.5136628108,22.0713956624,-2.5986053436,-0.11972758000000001,0.38483865000000006,-3.0359493500000005
43,2.1257,45.5641279492,21.1238379128,-5.8432727892,-0.41538140000000007,0.8344279300000002,-3.5356287400000004
43,2.1257,41.7164692084,-12.1363962272,23.2486643816,0.29321040000000004,-2.1086714600000005,-2.8978961200000004
43,2.1257,-23.0811667996,-14.165509792,-7.9011002251999995,0.07452431000000001,-4.059742330000001,-2.1245536900000004
43,2.1257,-18.9415837016,-8.2839518412,-9.5856473356,-0.22723806000000005,-0.7953332100000001,-1.5735624800000003
43,2.1257,33.332018818,18.999011444,12.4761770364,-0.24800713000000005,0.5302221400000001,-0.8246542500000001
43,2.1257,19.420148221599998,23.9377972904,-0.526420972,-0.035429590000000004,-1.8948722100000004,1.0286798200000002
43,2.1257,-51.2159749304,30.2979197612,-13.6725883364,0.12705784000000003,-3.0041848900000003,2.3530134600000006
43,2.1257,-25.7276285952,30.4654173432,16.2089802924,-0.14904862000000002,1.1936106700000002,2.3310226800000002
43,2.1257,19.5780745132,-13.2275233328,5.3312087528,0.17592624000000004,3.8202871700000007,1.6297611400000003
43,2.1257,45.3104887536,-2.9862426048,-22.7940280876,-0.16493085000000002,2.9711987200000003,1.0641094100000001
43,2.1257,72.4211688116,-6.9200429592,16.9028988464,0.039094720000000006,0.21868609000000003,0.18692163000000003
43,2.1257,17.6159599812,18.6113741828,-2.4981067944,0.24922884000000003,-5.833665250000001,-0.20158215000000004
43,2.1257,-86.26125473,17.7356011112,0.3158525832,0.3872820700000001,-6.6070076800000015,-0.15393546000000002
43,2.1257,-45.1860619784,32.9587384924,0.0382851616,-0.16981769000000002,1.2669132700000003,-0.7464648100000001
43,2.1257,28.0965229692,16.9938261052,0.6843472636,0.32253144000000006,5.660182430000001,-0.6230721000000001
43,2.1257,50.00999234,21.3152637208,-2.3928226,0.01710394,2.9333257100000005,-0.7281391600000001
44,2.1731,3.7902309983999998,5.8049876276,-1.43569356,0.32986170000000004,-1.5576802500000002,-0.5876425100000001
44,2.1731,-22.4494616332,-8.489734584799999,19.678573062399998,0.27366304,-0.8258759600000002,0.047646690000000005
44,2.1731,-34.4901449564,-8.9826560404,-14.572289634,0.13194468,0.25900252000000007,0.7928897900000001
44,2.1731,-42.439101633599996,9.7005028204,-2.967100024,-0.026877620000000005,0.7476865200000001,1.5931098400000003
44,2.1731,-25.5457740776,12.610175102,-1.1294122672,0.27977159000000007,1.9180847000000003,1.6126572000000003
44,2.1731,10.7054883124,16.3764778744,1.31605243,0.36529129000000005,3.4195662900000006,1.4391743800000003
44,2.1731,24.5934306828,10.863414603999999,11.8109723536,0.36406958000000006,1.1288600400000002,0.8784094900000001
44,2.1731,-17.46760498,16.3238357772,5.2546384296,0.4251550800000001,-2.3701174000000003,0.6731622100000001
44,2.1731,-27.3786761892,11.5621188032,-19.3866487052,0.5094530700000001,-2.5362699600000003,0.08307628000000002
44,2.1731,6.7142602155999995,11.7535446112,6.7142602155999995,0.34207880000000007,-1.7103940000000002,0.05619866000000001
44,2.1731,-27.7758847408,11.7200450948,5.5848479484,0.039094720000000006,-2.0365905700000004,0.5925293500000001
44,2.1731,-30.077780082,-12.4139636488,-4.4123648744,0.06108550000000001,-0.19058676000000002,0.43248534000000005
44,2.1731,9.5377908836,-3.9338003543999998,6.8865434428,-0.13683152,1.4208487300000003,-0.18936505000000003
44,2.1731,15.0795680252,-6.7812592484,-2.3306092123999997,-0.22357293000000003,0.6548365600000001,-0.5424392400000001
44,2.1731,11.676974288,-4.2017964856,-3.637090352,-0.18569992000000002,-0.18936505000000003,-1.2131580300000002
44,2.1731,15.802200450399999,4.3740797127999995,-2.2157537276,-0.18814334000000002,0.18447821000000003,-1.8313432900000004
44,2.1731,14.7541441516,10.0785687912,3.541377448,-0.10140193000000002,-0.014660520000000003,-2.3078101900000005
44,2.1731,-4.4889351976,20.7505575872,-2.2061824372,-0.10384535000000002,-0.8551970000000001,-2.3908864700000003
44,2.1731,-13.811372047199999,13.6247318844,7.9585279676,0.09895851000000001,-1.8166827700000003,-2.4825147200000006
44,2.1731,2.6608187312,15.668202384799999,-9.044869428,-0.19425189000000004,0.5742037000000001,-2.7097527800000005
45,2.2224,38.2755903096,15.7160588368,12.3517502612,-0.15515717000000004,1.9486274500000003,-3.1752242900000005
45,2.2224,6.8004018292,-10.16949605,-8.7194455544,0.19058676000000002,-0.11728416000000003,-1.8203479000000002
45,2.2224,10.983055734,-16.079767871999998,-1.9956140484,-0.04153814000000001,-1.6212091700000002,-1.9852787500000004
45,2.2224,6.8865434428,7.8293155472,5.479563754,-0.18936505000000003,-0.5803122500000001,-0.8380930600000002
45,2.2224,-0.047856452,9.9589276612,-0.5647061336,-0.15760059,-0.7061483800000001,0.13316639000000002
45,2.2224,-12.4378918748,18.1902374052,-4.6372901988,-0.14538349000000003,0.5815339600000001,1.7739229200000002
45,2.2224,-17.82652837,31.9489673552,1.5840485612,-0.06475063000000002,0.4459241500000001,2.1037846200000003
45,2.2224,-11.4520489636,23.2151648652,-2.0099709839999997,-0.04275985000000001,1.9620662600000003,2.21984707
45,2.2224,18.78365741,-19.802999837599998,9.1549392676,0.15760059,3.5576195200000007,1.7861400200000004
45,2.2224,55.8628364196,-1.6366906584,-8.2839518412,-0.09040654000000002,1.9596228400000004,0.6181852600000001
45,2.2224,60.624553393599996,-0.741775006,10.7485591192,0.34207880000000007,-1.5063684300000002,-0.40682943000000005
45,2.2224,-2.1248264688,12.2225378408,-6.8721865071999995,0.31153605000000006,-5.904524430000001,-0.44836757000000005
45,2.2224,-57.9733059528,11.442477673199999,2.5794627628,0.09773680000000001,-4.240555410000001,0.11728416000000003
45,2.2224,-49.2873599148,21.7938282408,-3.541377448,-0.08185457000000002,0.30909263000000003,0.22723806000000005
45,2.2224,6.9726850564,13.294522365599999,2.177468566,-0.05009011000000001,3.3254946200000006,0.4593629600000001
45,2.2224,53.4700138196,19.5206467708,4.3836510032,-0.23212490000000005,3.5368504500000006,0.6609451100000001
45,2.2224,6.4031932776,7.3746792532,1.4739787216,-0.023212490000000002,-0.12339271000000002,0.8991785600000002
45,2.2224,-15.2757794784,13.1988094616,-0.3780659708,-0.09651509000000001,-1.0763265100000001,0.003665130000000001
45,2.2224,11.6817599332,-0.095712904,4.7330031028,-0.029321040000000007,0.6181852600000001,-0.5375524
45,2.2224,7.0301127988,-4.5655055207999995,-2.8522445392,0.0012217100000000002,0.9187259200000002,0.4080511400000001
46,2.2703,-33.2937336564,-0.0191425808,-7.8341011923999995,0.17959137000000003,-1.8655511700000003,0.9272778900000002
46,2.2703,-50.4789855696,8.4658063588,0.0909272588,0.16615256000000003,-1.2094929,0.7525733600000001
46,2.2703,-19.0851530576,11.1361963804,6.556333924,-0.05497695000000001,1.9425189000000003,0.6206286800000002
46,2.2703,23.4161619636,13.1270247836,6.3314085996,-0.16126572000000003,2.00849124,0.36529129000000005
46,2.2703,2.3832513096,9.6047899164,-6.6616181184,0.10995390000000002,0.08429799000000002,0.4715800600000001
46,2.2703,-25.2969205272,5.599204884,-3.4360932535999997,0.19180847000000004,-1.7580406900000003,0.08674141000000002
46,2.2703,-26.5459739244,8.7912302324,5.934200048,0.10262364000000002,-1.8948722100000004,0.07574602000000001
46,2.2703,14.3138647932,1.7419748527999999,8.446663778,-0.023212490000000002,-0.4850188700000001,-0.04520327000000001
46,2.2703,-5.3694939144,11.1553389612,-8.757730716,-0.25778081,-0.8307628000000001,0.04153814000000001
46,2.2703,-22.1479659856,7.1641108644,-6.4271215036,-0.5180050400000001,0.28099330000000006,0.21013412000000004
46,2.2703,-4.498506488,3.9481572899999997,2.440679052,-0.41660311000000005,0.4251550800000001,-0.10873219000000002
46,2.2703,-0.6747759731999999,0.41156548719999997,17.879170467199998,-0.20036044000000003,0.03176446000000001,-0.07085918000000001
46,2.2703,-36.1603351312,-8.5854474888,-1.0576275892,-0.25533739000000005,-0.6756056300000001,0.18081308000000004
46,2.2703,-2.3784656643999997,-0.3397808092,-23.1529514776,-0.4642498000000001,2.57292126,-0.5766471200000001
46,2.2703,48.9954355576,1.268195978,5.0153561695999995,0.04275985000000001,4.422590200000001,-1.1765067300000003
46,2.2703,39.5581432232,3.9672998708,17.9892403068,0.24067687000000004,-1.0934304500000003,-1.6871815100000003
46,2.2703,-26.0626237592,1.651047594,1.8711872732,-0.08674141000000002,-3.7616450900000005,-1.6480867900000002
46,2.2703,-22.9040979272,10.16949605,-6.5611195692,-0.42637679000000006,-0.6450628800000001,-2.4043252800000006
46,2.2703,7.671389255599999,22.3824626004,-4.8478585876,-0.22479464000000005,0.3628478700000001,-2.8588014000000004
46,2.2703,6.5994047308,12.5479617144,8.4131642616,0.16981769000000002,0.7318042900000001,-2.4983969500000005
47,2.3183,24.8901406852,11.121839444799999,16.1659094856,0.06719405,1.3976362400000002,-2.5545956100000002
47,2.3183,17.3527494952,-6.0346985972,-5.8672010152,0.09651509000000001,-0.18936505000000003,-2.2369510100000003
47,2.3183,-0.0909272588,2.321037922,-7.6761749007999995,0.024434200000000003,-1.5967749700000002,-1.9987175600000002
47,2.3183,-1.6606188844,-8.8869431364,8.7720876516,0.6462845900000002,0.3469656400000001,-1.4074099200000003
47,2.3183,-0.646062102,-4.18743955,-3.7998022888,0.23334661000000004,2.0317037300000003,-0.9981370700000002
47,2.3183,27.5748876424,10.6193466988,13.926227532,-0.05742037000000001,2.7354086900000003,-0.5131182000000001
47,2.3183,26.6704006996,24.9762822988,4.5511485852,0.21990780000000004,-0.27488475000000007,0.36406958000000006
47,2.3183,-2.8905297008,26.5220456984,-8.7050886188,0.5583214700000001,-2.9992980500000006,0.8136588600000001
47,2.3183,-12.270394292799999,16.9076844916,8.0542408716,0.29687553000000005,-0.9590423500000002,1.8423386800000003
47,2.3183,-15.649059804,20.3677059712,1.9286150156,-0.19791702000000003,-1.5075901400000002,1.6053269400000003
47,2.3183,-8.7194455544,-23.5358030936,-13.0504544604,0.16004401000000001,-0.6475063000000001,0.7818944000000001
47,2.3183,61.730037434799996,3.6753755135999997,-5.7954163372,-0.4654715100000001,2.1404359200000003,-0.16981769000000002
47,2.3183,64.0845748732,-0.2775674216,18.4773761172,0.10140193000000002,-1.6884032200000003,-0.30298408000000004
47,2.3183,-19.7742859664,16.4434769072,0.1387837108,0.11361903000000002,-5.605205480000001,0.15515717000000004
47,2.3183,-61.6343245308,9.33200814,-16.9220414272,0.07941115000000001,-3.4708781100000006,0.09529338000000001
47,2.3183,-33.4564455932,21.2530503332,0.71784678,-0.19669531000000004,2.9125566400000005,0.34940906000000005
47,2.3183,19.1234382192,21.3870483988,0.38763726119999997,0.10384535000000002,5.603983770000001,0.8759660700000002
47,2.3183,49.474000077599996,11.7344020304,1.483550012,0.07085918000000001,3.1410164100000006,1.0873219000000003
47,2.3183,-10.3944213744,16.5726893276,0.0669990328,-0.12705784000000003,-1.8240130300000004,0.7855595300000001
47,2.3183,-39.5390006424,18.5060899884,-8.7720876516,-0.22601635000000003,-1.1386337200000003,-0.05375524000000001
48,2.3663,42.5061006664,-2.6464617956,-2.1966111468,-0.20646899000000005,3.732324050000001,-0.4899057100000001
48,2.3663,32.925238976,-12.5096765528,21.77468566,0.33841367000000006,-0.7806726900000002,0.26755449000000003
48,2.3663,-74.5747091516,2.3880369548,-12.418749294,0.25045055000000005,-6.577686640000001,0.35551761000000004
48,2.3663,-90.9607583164,1.507478238,-22.4973180852,-0.19425189000000004,-0.22968148000000005,0.6389543300000001
48,2.3663,26.660829409199998,19.5685032228,20.7792714584,-0.34940906000000005,3.753093120000001,0.4923491300000001
48,2.3663,19.932212258,11.1888384776,1.2059825903999999,-0.012217100000000002,0.6157418400000001,0.7733424300000001
48,2.3663,-21.1334092032,9.198010074399999,-7.7336026432,-0.09529338000000001,0.05375524000000001,0.5864208000000001
48,2.3663,-21.5976167876,17.0703964284,2.2061824372,-0.33230512000000006,0.34574393000000003,0.6389543300000001
48,2.3663,7.4368926408,15.7064875464,1.8711872732,-0.11239732000000002,0.19058676000000002,0.08796312000000002
48,2.3663,-28.9100826532,7.3986074792,-13.351950108,-0.11484074000000002,0.8258759600000002,0.48868400000000006
48,2.3663,-38.8737959596,3.11066938,9.9349994352,-0.3628478700000001,2.6731014800000006,0.5705385700000001
48,2.3663,17.7164585304,7.4081787696,6.742974086799999,-0.43615047000000007,3.5197465100000005,0.09529338000000001
48,2.3663,-4.6277189084,-20.6883441996,-0.1387837108,-0.22723806000000005,2.0720201600000006,-0.12094929000000001
48,2.3663,-0.5024927459999999,-2.1248264688,2.6464617956,-0.38117352000000004,-0.10628877000000002,-1.0335666600000002
48,2.3663,22.1766798568,-2.081755662,-3.5653056739999998,-0.16248743000000002,0.37384326000000007,-1.1508508200000003
48,2.3663,31.925039129199998,3.7375889012,-1.698904046,-0.18936505000000003,-0.6768273400000001,-2.1978562900000003
48,2.3663,-8.0829547428,13.2610228492,10.413563955199999,-0.29931895000000003,-1.7568189800000003,-2.1673135400000003
48,2.3663,-21.6502588848,7.9011002251999995,4.1826539047999995,-0.05986379000000001,-1.6089920700000002,-2.4116555400000004
48,2.3663,17.180466268,16.5726893276,-15.988840613199999,-0.43737218000000005,-0.06352892000000002,-2.8551362700000005
48,2.3663,21.1956225908,17.4484623992,8.638089586,-0.5265570100000001,-1.1190863600000003,-2.8307020700000005
49,2.4139,-12.5096765528,14.4909336656,19.0085827344,0.27121962000000005,-2.7512909200000006,-2.5130574700000006
49,2.4139,2.8905297008,-2.0051853388,-12.0550402588,0.3054275000000001,1.6456433700000002,-2.8355889100000007
49,2.4139,17.1421811064,6.7908305388,8.489734584799999,0.07208089000000001,4.012095640000001,-2.4165423800000005
49,2.4139,48.3541591008,1.9286150156,5.1445685899999996,0.29809724000000004,1.0286798200000002,-2.5802515200000005
49,2.4139,26.6416868284,-0.406779842,-7.7958160308,0.58886422,0.33963538000000004,-0.6719405000000002
49,2.4139,-21.8129708216,10.959127508,9.4707918508,0.30909263000000003,-1.4990381700000002,0.6658319500000001
49,2.4139,-25.9094831128,26.785256184399998,21.9038980804,-0.15027033000000004,-0.32741828000000006,1.8789899800000003
49,2.4139,-24.4498613268,13.1892381712,-11.964113,0.03176446000000001,0.50212281,2.3994384400000004
49,2.4139,6.652046828,-3.3212377688,-11.4089781568,0.05009011000000001,1.7042854500000002,1.5124769800000002
49,2.4139,90.5539784744,0.1483550012,9.834500885999999,-0.035429590000000004,4.340735630000001,0.6511714300000001
49,2.4139,77.9485890176,13.7013022076,19.2670075752,0.31886631000000004,-3.3144992300000005,-0.2687762
49,2.4139,-1.3447663012,19.0516535412,7.350751027199999,0.24067687000000004,-10.130419320000001,-0.6279589400000001
49,2.4139,-50.2444889548,16.725829974,-16.596617553599998,0.3469656400000001,-9.063866490000002,-0.33719196000000007
49,2.4139,-60.4618414568,1.4739787216,-21.1238379128,0.15515717000000004,-2.5240528600000003,0.6902661500000001
49,2.4139,-13.7922294664,21.2147651716,11.442477673199999,-0.08551970000000002,4.5349875200000005,1.3402158700000002
49,2.4139,40.7066980712,2.3306092123999997,20.8701987172,0.10628877000000002,6.437189990000001,2.2638286300000003
49,2.4139,26.6034016668,16.7593294904,-3.5940195452,-0.32253144000000006,0.6365109100000002,2.3126970300000003
49,2.4139,-42.5778853444,13.7300160788,-17.7403867564,-0.13560981000000003,-1.8386735500000002,1.9022024700000004
49,2.4139,-24.2488642284,11.6674029976,-6.364908116,0.06230721000000001,3.4342268100000006,0.9956936500000002
49,2.4139,22.516460666,19.8508562896,24.1387943888,0.6743839200000001,5.0847570200000005,0.16859598000000003
50,2.4625,28.8287266848,-8.5328053916,8.3318082932,0.7159220600000001,2.5533739000000004,-0.34940906000000005
50,2.4625,11.8731857412,10.504491214,-16.9555409436,0.35307419000000007,-1.7360499100000002,0.27244133000000004
50,2.4625,-61.371114044799995,-7.3890361888,-2.7326034091999998,1.1080909700000001,-6.9967331700000015,1.3035645700000003
50,2.4625,-95.9426149696,9.6000042712,-6.2979090831999995,0.7965549200000002,-3.6516911900000006,1.2937908900000001
50,2.4625,10.9686987984,7.1784678,27.948167968,0.14782691000000003,2.8844573100000006,0.8112154400000001
50,2.4625,47.9378079684,23.1098806708,9.6813602396,-0.7037049600000002,-1.1300817500000002,0.7513516500000001
50,2.4625,-6.3314085996,18.1423809532,-41.2139764624,-0.5693168600000001,-3.3987972200000005,1.1374120100000003
50,2.4625,-51.876393968,1.5840485612,-19.4488620928,-0.5644300200000001,-3.3548156600000008,0.5546563400000001
50,2.4625,-42.1471772764,20.769700168,43.094735026,-0.2687762,0.6768273400000001,0.07330260000000001
50,2.4625,-13.471591238,-19.5541462872,8.8869431364,0.26633278000000005,3.8825943800000005,-0.17836966000000004
50,2.4625,4.2448672923999995,8.231309744,-22.037896145999998,-0.33841367000000006,4.6046249900000005,-0.4239333700000001
50,2.4625,25.411776012,-0.2679961312,-19.4584333832,0.41171627000000005,4.098837050000001,-0.8649706800000001
50,2.4625,15.3236359304,4.4075792292,19.046867896,0.8942917200000001,1.2913474700000003,-1.3194468000000001
50,2.4625,-35.3037046404,-0.191425808,8.2648092604,0.11728416000000003,0.21624267000000003,-1.2424790700000001
50,2.4625,-28.689942974,14.8642139912,4.163511324,-0.9773680000000001,3.5001991500000007,-1.2693566900000002
50,2.4625,22.3346061484,9.6095755616,-1.8759729184,-0.24800713000000005,5.000459030000001,-1.7653709500000003
50,2.4625,48.1005199052,2.4023938904,-18.6688019252,-0.14538349000000003,2.6071291400000005,-1.8093525100000003
50,2.4625,41.012979363999996,10.4518491168,21.5258321096,-0.50212281,-1.6260960100000004,-1.6676341500000003
50,2.4625,26.4789748916,5.4604211732,27.809384257199998,0.06475063000000002,-6.572799800000001,-2.3517917500000003
50,2.4625,-22.5738884084,-1.1102696864,-19.38186306,0.5558780500000001,-7.916680800000002,-3.0860394600000003
51,2.5132,-46.2197613416,14.9216417336,-21.0041967828,0.23334661000000004,-2.1025629100000005,-2.9455428100000005
51,2.5132,44.2672181,21.8273277572,19.9513548388,0.6096332900000001,3.560062940000001,-2.9528730700000003
51,2.5132,44.5591424572,16.3525496484,19.405791286,1.1484074000000002,-0.029321040000000007,-1.9254149600000003
51,2.5132,-12.538390424,7.9489566772,-13.7683012404,0.22357293000000003,-2.3994384400000004,-0.8442016100000002
51,2.5132,-4.7665026192,7.9728849032,7.5804619967999995,-0.22601635000000003,1.8032439600000003,1.01768443
51,2.5132,-27.3308197372,-11.2797657364,-11.7918297728,0.24556371000000005,1.5723407700000003,2.4507502600000004
51,2.5132,-26.2205500508,-8.5375910368,-10.925627991599999,-0.030542750000000004,3.4574393000000008,2.05369451
51,2.5132,74.919275606,19.62114532,36.0215514204,-0.21135583000000002,8.198895810000002,1.1508508200000003
51,2.5132,98.9719283812,20.9324121048,24.5455742308,0.5399958200000001,1.01768443,0.6157418400000001
51,2.5132,17.611174336,11.8301149344,-21.281764204399998,1.0824350600000001,-6.994289750000001,0.33352683000000005
51,2.5132,-59.8779927424,19.4440764476,-3.0436703472,0.7440213900000001,-8.010752470000002,-0.19303018000000002
51,2.5132,-25.6223444008,7.7575308692,-2.1343977592,0.8723009400000001,-3.9913265700000005,-0.20769070000000003
51,2.5132,23.5501600292,14.452648503999999,-2.1104695332,0.37017813000000005,-0.29565382000000007,0.7672338800000001
51,2.5132,3.9338003543999998,13.7635155952,18.2668077284,0.20891241000000002,-0.28954527,1.8215696100000003
51,2.5132,-6.8721865071999995,-0.4689932296,-2.03389921,0.28221501000000004,-1.3951928200000003,2.34323978
51,2.5132,-12.9020994592,4.6277189084,-22.2484645348,-0.007330260000000002,-2.0378122800000003,2.2907062500000004
51,2.5132,-18.448662246,11.820543643999999,3.6227334164,-0.03298617,0.7818944000000001,2.3701174000000003
51,2.5132,-17.898313048,20.9324121048,19.5110754804,0.8038851800000001,3.6028227900000007,1.7323847800000003
51,2.5132,3.0915267992,-1.1820543644,-18.0227398232,0.7953332100000001,5.8190047300000005,0.8393147700000001
51,2.5132,9.1836531388,28.1491650664,8.4370924876,0.27977159000000007,2.9980763400000003,0.20280386000000003
52,2.5585,15.170495284,3.062812928,11.4472633184,0.9871416800000001,-0.4288202100000001,0.013438810000000002
52,2.5585,-9.2937229784,-6.6855463444,-8.781658942,1.23514881,-2.7329652700000007,0.34207880000000007
52,2.5585,-87.6634487736,-2.1583259852,-0.7848458128,0.25778081,-3.913137130000001,1.2082711900000003
52,2.5585,-29.8097839508,5.02492746,15.19442351,-0.19913873000000004,-1.4000796600000003,0.6194069700000001
52,2.5585,27.9673105488,13.63908882,-16.5391898112,-0.28588014000000006,-0.39094720000000005,0.5070096500000001
52,2.5585,2.8761727651999998,10.7150596028,-3.397808092,-0.6462845900000002,-2.9284388700000004,0.4801320300000001
52,2.5585,-12.3852497776,31.6953281596,-6.3553368256,-1.0103541700000003,-1.6517519200000004,0.29809724000000004
52,2.5585,-41.2187621076,7.0875405412,23.8899408384,0.3982774600000001,-2.5753646800000003,-0.20402557000000004
52,2.5585,-51.5844696108,-4.6325045536,-8.939585233599999,0.44714586000000006,-0.7965549200000002,-1.5967749700000002
52,2.5585,18.2380938572,-6.508477472,7.0396840892,0.24434200000000003,6.969855550000001,-1.6712992800000002
52,2.5585,41.654255820799996,24.52643165,-17.7164585304,0.4043860100000001,3.816622040000001,-1.6603038900000002
52,2.5585,-16.3046931964,-4.2017964856,2.1439690496,1.1923889600000002,0.4459241500000001,-1.1630679200000003
52,2.5585,-50.823552024,-0.1531406464,-1.31605243,-0.06719405,1.8044656700000004,-1.6236525900000003
52,2.5585,-25.4069903668,14.6584312476,16.017554484399998,-0.7696773000000001,6.578908350000001,-1.6578604700000004
52,2.5585,62.691952119999996,8.2408810344,9.6000042712,-0.23579003000000004,8.977125080000002,-1.9974958500000004
52,2.5585,59.145789026799996,2.3306092123999997,-7.680960546,-0.04031643000000001,2.7134179100000004,-2.2479464000000005
52,2.5585,23.196022284399998,3.6131621259999998,8.551947972399999,0.06841576,-4.057298910000001,-3.0945914300000004
52,2.5585,17.682959013999998,12.782458329199999,20.003996936,0.5412175300000001,-6.081672380000001,-3.7457628600000006
52,2.5585,-35.2797764144,-0.2344966148,-4.1539400336,1.3487678400000003,-5.872759970000001,-4.261324480000001
52,2.5585,-32.4849596176,23.712871965999998,-7.010970218,0.5375524,0.6206286800000002,-4.400599420000001
53,2.6515,84.9499879452,22.396819536,27.5940302232,0.8979568500000001,4.23078173,-4.4775671500000005
53,2.6515,68.84629184719999,13.749158659599999,-4.1778682596,0.9614857700000001,-4.142818610000001,-2.9553164900000004
53,2.6515,-36.7011130388,-6.5419769884,-6.9583281208,0.5253353000000001,-6.830580610000001,-0.7061483800000001
53,2.6515,-67.3196710284,12.011969451999999,7.4560352216,-0.30787092000000005,-2.4116555400000004,1.1532942400000001
53,2.6515,-45.6933403696,-4.0103706776,-6.5946190856,-0.06475063000000002,2.6450021500000003,2.0378122800000003
53,2.6515,15.7639152888,6.4654066652,-0.8949156523999999,0.004886840000000001,7.331481710000001,1.2375922300000002
53,2.6515,116.6213878788,20.7362006516,21.4349048508,0.047646690000000005,7.998535370000002,0.24189858000000003
53,2.6515,96.1579690036,21.5019038836,21.1142666224,0.8478667400000002,-1.5625670900000002,-0.4703583500000001
53,2.6515,-17.7978144988,9.1692962032,-2.943171798,0.9517120900000001,-9.804222750000001,-0.7721207200000001
